"Time (s)","Linear Acceleration x (m/s^2)","Linear Acceleration y (m/s^2)","Linear Acceleration z (m/s^2)","Absolute acceleration (m/s^2)"
1.215927200E-2,-8.028149605E-4,3.865957260E-4,-3.198623657E-2,3.199864526E-2
1.715927200E-2,1.184719801E-2,-8.854866028E-3,-7.438087463E-2,7.583718919E-2
2.215927200E-2,1.554560661E-2,-1.545029879E-2,-1.030149460E-1,1.053207326E-1
2.715927200E-2,3.449332714E-2,-4.606330395E-2,-1.486730576E-1,1.594217539E-1
3.215927200E-2,4.891210794E-2,-5.677872896E-2,-1.603431702E-1,1.769919506E-1
3.715927200E-2,8.129984140E-2,-6.685048342E-2,-1.104326248E-1,1.525582380E-1
4.215927200E-2,9.560066462E-2,-7.406628132E-2,-5.573081970E-2,1.331586474E-1
4.715927200E-2,9.171271324E-2,-6.000387669E-2,8.317947388E-3,1.099130349E-1
5.215927200E-2,7.047826052E-2,-4.032731056E-2,5.287742615E-2,9.689942920E-2
5.715927200E-2,6.608617306E-2,-1.759457588E-2,8.872509003E-2,1.120227342E-1
6.215927200E-2,3.127199411E-2,1.301527023E-3,7.958507538E-2,8.551851151E-2
6.715927200E-2,8.507013321E-3,-5.078315735E-4,7.066440582E-2,7.117643865E-2
7.215927200E-2,-1.249635220E-2,1.853197813E-2,3.547477722E-2,4.192914083E-2
7.715927200E-2,-1.873618364E-2,2.645176649E-2,2.179718018E-2,3.906222717E-2
8.215927200E-2,-3.636437654E-2,2.600675821E-2,3.417968750E-3,4.483750511E-2
8.715927200E-2,-3.965383768E-2,2.515655756E-2,1.195335388E-2,4.845783631E-2
9.215927200E-2,-2.667158842E-2,1.530224085E-2,1.129150391E-2,3.275714066E-2
9.715927200E-2,-1.855820417E-2,1.116883755E-2,1.252937317E-2,2.502269103E-2
1.021592720E-1,-4.003596306E-2,-1.235824823E-2,4.827404022E-2,6.392173024E-2
1.071592720E-1,-4.695308208E-2,-1.544421911E-2,3.829765320E-2,6.252860195E-2
1.121592720E-1,-4.622370005E-2,-2.095282078E-2,6.442642212E-2,8.201472436E-2
1.171592720E-1,-4.948854446E-2,-4.205900431E-2,5.653667450E-2,8.610732512E-2
1.221592720E-1,-4.751044512E-2,-4.553067684E-2,4.949378967E-2,8.234027049E-2
1.271592720E-1,-5.756205320E-2,-5.063223839E-2,3.460693359E-2,8.411095877E-2
1.321592720E-1,-4.874181747E-2,-5.372834206E-2,7.084846497E-3,7.288823335E-2
1.371592720E-1,-6.370222569E-2,-4.752033949E-2,8.263587952E-3,7.990271027E-2
1.421592720E-1,-4.263418913E-2,-2.658593655E-2,-9.094238281E-3,5.106066269E-2
1.471592720E-1,-3.605484962E-2,-2.156651020E-2,-8.611679077E-4,4.202152013E-2
1.521592720E-1,-2.970975637E-2,-1.889526844E-2,-2.767562866E-3,3.531798688E-2
1.571592720E-1,-1.832586527E-2,-1.300662756E-2,-1.053619385E-2,2.481977194E-2
1.621592720E-1,-1.148325205E-2,-9.395480156E-4,1.852035522E-3,1.166952714E-2
1.671592720E-1,-2.268123627E-2,1.102596521E-2,8.826255798E-3,2.671915378E-2
1.721592720E-1,-6.006181240E-3,1.670032740E-2,2.212810516E-2,2.836596881E-2
1.771592720E-1,-2.241885662E-2,1.570171118E-2,3.525638580E-2,4.463363761E-2
1.821592720E-1,-1.205271482E-2,9.956657887E-3,3.012466431E-2,3.393962832E-2
1.871592720E-1,-1.874208450E-2,8.003234863E-3,2.746963501E-2,3.420377680E-2
1.921592720E-1,-2.508008480E-2,5.721986294E-3,2.387237549E-2,3.509475876E-2
1.971592720E-1,-9.097576141E-3,1.200914383E-3,3.567028046E-2,3.683173896E-2
2.021592720E-1,-9.204685688E-3,4.896938801E-3,4.849338531E-2,4.960155912E-2
2.071592720E-1,3.674566746E-3,-1.197451353E-2,4.029369354E-2,4.219565326E-2
2.121592720E-1,4.196047783E-3,8.195042610E-4,3.374385834E-2,3.401362050E-2
2.171592720E-1,-1.985549927E-3,-3.515362740E-3,2.658748627E-2,2.689227788E-2
2.221592720E-1,-5.236864090E-4,-1.807153225E-3,1.363468170E-2,1.376388736E-2
2.271592720E-1,1.706320047E-2,-1.098573208E-3,8.979797363E-3,1.931311560E-2
2.321592720E-1,2.812612057E-2,-6.413400173E-3,2.539539337E-2,3.843353177E-2
2.371592720E-1,2.912729979E-2,-6.828904152E-4,9.871482849E-3,3.076218630E-2
2.421592720E-1,3.603315353E-2,-2.748787403E-3,-1.807212830E-2,4.040477456E-2
2.471592720E-1,3.169107437E-2,-7.973372936E-3,-3.008937836E-2,4.442149886E-2
2.521592720E-1,3.834742308E-2,-1.220214367E-2,-4.818153381E-2,6.277640773E-2
2.571592720E-1,4.332059622E-2,-1.207578182E-2,-4.333782196E-2,6.245530702E-2
2.621592720E-1,3.548181057E-2,-1.432138681E-2,8.301734924E-3,3.915328600E-2
2.671592720E-1,4.423135519E-2,-8.434176445E-3,5.659294128E-2,7.232087608E-2
2.721592720E-1,3.201246262E-2,-3.015637398E-3,1.208400726E-2,3.434989175E-2
2.771592720E-1,1.842230558E-2,-7.137775421E-3,-5.058193207E-2,5.430341640E-2
2.821592720E-1,2.187746763E-2,-3.526383638E-2,-6.788921356E-2,7.956825413E-2
2.871592720E-1,1.640772820E-2,-2.114617825E-2,3.866481781E-2,4.702491398E-2
2.921592720E-1,4.172682762E-3,-1.703172922E-2,1.536779404E-1,1.546751449E-1
2.971592720E-1,-2.799767256E-2,2.605617046E-3,2.126913071E-1,2.145419563E-1
3.021592720E-1,-5.021297932E-2,6.145298481E-3,1.950407028E-1,2.014943765E-1
3.071592720E-1,-4.995632172E-2,6.953418255E-3,1.495656967E-1,1.578413182E-1
3.121592720E-1,-4.609811306E-2,2.374702692E-2,8.676338196E-2,1.010783942E-1
3.171592720E-1,-3.049439192E-2,1.757508516E-2,1.092338562E-2,3.685256993E-2
3.221592720E-1,-1.981955767E-2,5.476891994E-3,-4.639625549E-2,5.074863285E-2
3.271592720E-1,-1.135808229E-2,-1.580476761E-2,-4.955387115E-2,5.323892241E-2
3.321592720E-1,-2.480864525E-3,-1.672756672E-2,-4.959774017E-2,5.240135502E-2
3.371592720E-1,-7.719278336E-3,-2.636307478E-2,-3.748607635E-2,4.647370106E-2
3.421592720E-1,3.285467625E-3,-1.727652550E-2,-6.813526154E-2,7.036822078E-2
3.471592720E-1,2.091556787E-2,-1.977276802E-2,-6.502056122E-2,7.110623542E-2
3.521592720E-1,2.814817429E-2,-3.960788250E-3,-5.624294281E-2,6.301806229E-2
3.571592720E-1,1.836526394E-2,6.048858166E-3,1.121616364E-2,2.235338747E-2
3.621592720E-1,9.217798710E-3,9.182453156E-3,1.751899719E-2,2.182201919E-2
3.671592720E-1,9.720265865E-3,2.324181795E-2,2.087020874E-2,3.271438954E-2
3.721592720E-1,8.698761463E-3,3.094935417E-2,-7.217407227E-3,3.294877755E-2
3.771592720E-1,5.006372929E-3,3.549063206E-2,-4.003429413E-2,5.373447162E-2
3.821592720E-1,6.536006927E-3,3.598761559E-2,-5.346298218E-2,6.477745229E-2
3.871592720E-1,1.495152712E-2,3.477865458E-2,-4.143714905E-2,5.612611067E-2
3.921592720E-1,1.974940300E-2,2.779644728E-2,-2.499580383E-2,4.227850056E-2
3.971592720E-1,2.024972439E-2,1.630562544E-2,-6.925582886E-3,2.690517528E-2
4.021592720E-1,1.680278778E-2,1.828324795E-2,2.857589722E-2,3.785753207E-2
4.071592720E-1,3.798246384E-3,1.840829849E-3,1.535320282E-2,1.592281906E-2
4.121592720E-1,-1.755362749E-2,4.030525684E-3,-1.744270325E-3,1.809468028E-2
4.171592720E-1,-1.606678963E-2,1.482725143E-3,-5.213737488E-3,1.695651088E-2
4.221592720E-1,-1.210021973E-2,3.985285759E-3,-6.163597107E-3,1.415230544E-2
4.271592720E-1,-2.231538296E-2,-1.179873943E-3,-1.125431061E-2,2.502055008E-2
4.321592720E-1,-2.283304930E-2,-5.538761616E-3,-2.378845215E-2,3.343525798E-2
4.371592720E-1,-2.332758904E-2,-5.286097527E-3,-1.950740814E-2,3.086516175E-2
4.421592720E-1,-2.583920956E-2,-1.461499929E-2,-1.916885376E-2,3.533706141E-2
4.471592720E-1,-1.733022928E-2,-2.353030443E-2,-1.322078705E-2,3.207493233E-2
4.521592720E-1,-1.667511463E-2,-3.143507242E-2,1.513195038E-2,3.866780506E-2
4.571592720E-1,-2.324908972E-2,-1.660114527E-2,4.039478302E-2,4.947581927E-2
4.621592720E-1,-1.412904263E-2,-1.023232937E-2,6.179809570E-2,6.421319991E-2
4.671592720E-1,-1.985371113E-2,-3.541582823E-2,1.033849716E-1,1.110716124E-1
4.721592720E-1,-2.619260550E-2,-1.545971632E-2,1.050386429E-1,1.093534266E-1
4.771592720E-1,-2.637380362E-2,-1.585417986E-2,1.087150574E-1,1.129862657E-1
4.821592720E-1,-2.636462450E-2,-1.349115372E-2,9.156799316E-2,9.623825656E-2
4.871592720E-1,-2.566748857E-2,-1.172685623E-2,6.373023987E-2,6.969851218E-2
4.921592720E-1,-3.143733740E-2,-8.003354073E-3,3.619670868E-2,4.860618868E-2
4.971592720E-1,-1.397639513E-2,-7.555246353E-3,3.214263916E-2,3.585485491E-2
5.021592720E-1,-2.727997303E-2,-8.457601070E-3,2.132320404E-2,3.564276890E-2
5.071592720E-1,-1.211190224E-2,-1.531004906E-2,1.283836365E-2,2.336491727E-2
5.121592720E-1,4.630446434E-3,-1.311582327E-2,1.840782166E-2,2.307192563E-2
5.171592720E-1,1.339054108E-2,-6.412982941E-3,2.689647675E-2,3.072219722E-2
5.221592720E-1,1.959180832E-2,-2.587521076E-2,3.624916077E-2,4.865559723E-2
5.271592720E-1,2.335071564E-2,-1.267492771E-2,2.141094208E-2,3.412239959E-2
5.321592720E-1,6.498098373E-3,-1.258271933E-2,2.124881744E-2,2.553551156E-2
5.371592720E-1,1.982903481E-2,-2.174293995E-2,3.861427307E-2,4.854902825E-2
5.421592720E-1,2.359902859E-2,-1.718658209E-2,2.526473999E-2,3.860828721E-2
5.471592720E-1,1.951032877E-2,-1.527357101E-2,3.282546997E-2,4.112719756E-2
5.521592720E-1,1.062804461E-2,-7.282972336E-3,2.526283264E-2,2.835855658E-2
5.571592720E-1,1.080030203E-2,-8.554756641E-3,2.673339844E-2,3.007498923E-2
5.621592720E-1,-2.907693386E-3,-6.919503212E-4,1.372241974E-2,1.404415464E-2
5.671592720E-1,-7.550656796E-3,2.521097660E-3,6.145477295E-3,1.005660194E-2
5.721592720E-1,6.350040436E-3,-6.931006908E-3,9.114265442E-3,1.309319307E-2
5.771592720E-1,3.180801868E-3,-5.818963051E-3,-9.593963623E-3,1.166284569E-2
5.821592720E-1,-3.718972206E-3,-2.490878105E-4,2.577781677E-3,4.531860256E-3
5.871592720E-1,3.458201885E-3,-5.955278873E-3,2.967834473E-3,7.498836456E-3
5.921592720E-1,1.226294041E-2,-1.287311316E-2,1.045322418E-2,2.062441867E-2
5.971592720E-1,5.127847195E-3,-1.077687740E-2,1.748275757E-2,2.116796437E-2
6.021592720E-1,1.825094223E-4,-2.319842577E-2,2.840042114E-3,2.337233636E-2
6.071592720E-1,9.444296360E-3,-1.021713018E-2,5.838394165E-3,1.508878157E-2
6.121592720E-1,9.316682816E-3,-8.420705795E-3,1.884555817E-2,2.264649923E-2
6.171592720E-1,6.298363209E-3,-4.627048969E-3,1.760864258E-2,1.926507863E-2
6.221592720E-1,-3.964304924E-4,-1.225459576E-2,1.775169373E-2,2.157440392E-2
6.271592720E-1,2.347707748E-3,-3.850281239E-3,1.382827759E-3,4.716843213E-3
6.321592720E-1,-1.621454954E-2,3.491044044E-4,-4.604339600E-3,1.685922400E-2
6.371592720E-1,-1.588732004E-2,8.697211742E-3,1.171016693E-2,2.156794936E-2
6.421592720E-1,-9.684503078E-3,-4.024922848E-3,9.550094604E-3,1.418428394E-2
6.471592720E-1,-1.921808720E-2,1.038759947E-2,-1.042079926E-2,2.420392851E-2
6.521592720E-1,-1.267921925E-2,9.118437767E-3,1.298141479E-2,2.030826527E-2
6.571592720E-1,-1.481056213E-3,5.682528019E-3,9.438514709E-3,1.111621393E-2
6.621592720E-1,-7.507026196E-3,5.763649940E-3,-1.092910767E-3,9.527305856E-3
6.671592720E-1,-8.856415749E-3,5.805134773E-3,-9.593963623E-3,1.428915070E-2
6.721592720E-1,-2.492070198E-3,9.713709354E-3,-1.647949219E-3,1.016278997E-2
6.771592720E-1,-1.024377346E-2,1.345634460E-3,4.593849182E-3,1.130703662E-2
6.821592720E-1,-4.579484463E-3,4.774689674E-3,6.485939026E-3,9.264812166E-3
6.871592720E-1,3.251075745E-3,-1.476049423E-3,-1.554679871E-2,1.595152549E-2
6.921592720E-1,-1.507419348E-2,5.680739880E-3,-2.809524536E-3,1.635223357E-2
6.971592720E-1,-1.374584436E-2,5.641877651E-3,-9.717941284E-3,1.775436294E-2
7.021592720E-1,-3.964424133E-3,-6.378293037E-4,-3.065109253E-3,5.051571999E-3
7.071592720E-1,-6.491720676E-3,3.677606583E-3,-6.289482117E-3,9.758320184E-3
7.121592720E-1,-1.662546396E-2,1.093864441E-3,-9.084701538E-3,1.897720721E-2
7.171592720E-1,-4.328310490E-3,9.217560291E-3,1.368236542E-2,1.705593190E-2
7.221592720E-1,-1.583641768E-2,1.996994019E-3,-1.593589783E-3,1.604118569E-2
7.271592720E-1,-1.187938452E-2,1.592016220E-2,-5.671501160E-3,2.065762006E-2
7.321592720E-1,-1.831674576E-2,9.672760963E-3,-4.098892212E-3,2.111554871E-2
7.371592720E-1,-6.379187107E-3,1.021683216E-2,-2.905845642E-3,1.239038444E-2
7.421592720E-1,5.598664284E-4,1.939135790E-2,7.938385010E-3,2.096082461E-2
7.471592720E-1,-3.892302513E-3,1.925027370E-2,-7.109642029E-3,2.088707893E-2
7.521592720E-1,2.391934395E-4,4.990756512E-3,-3.864288330E-3,6.316453780E-3
7.571592720E-1,-4.158735275E-3,1.404333115E-2,-1.036643982E-3,1.468280830E-2
7.621592720E-1,-2.660572529E-3,-1.050114632E-3,1.937866211E-3,3.454954757E-3
7.671592720E-1,5.367994308E-4,-2.562224865E-3,2.228832245E-2,2.244153443E-2
7.721592720E-1,5.079507828E-4,-7.129788399E-3,2.525806427E-2,2.624998490E-2
7.771592720E-1,4.120469093E-4,-1.219117641E-2,2.889060974E-2,3.136019605E-2
7.821592720E-1,1.838207245E-4,-3.618419170E-3,2.869033813E-2,2.891819928E-2
7.871592720E-1,-9.614765644E-3,-6.798923016E-3,4.245758057E-2,4.406035883E-2
7.921592720E-1,-4.469513893E-3,-7.754325867E-3,1.981639862E-2,2.174386760E-2
7.971592720E-1,-2.199470997E-3,-1.332652569E-2,-1.775741577E-3,1.362303996E-2
8.021592720E-1,-3.803074360E-3,-2.293199301E-2,-3.036499023E-3,2.344269618E-2
8.071592720E-1,3.831207752E-3,-2.561491728E-2,-1.105499268E-2,2.816052207E-2
8.121592720E-1,4.168927670E-3,-2.150803804E-2,-2.318382263E-3,2.203067304E-2
8.171592720E-1,-1.544594765E-3,-1.351010799E-2,-7.358551025E-3,1.546147031E-2
8.221592720E-1,6.757318974E-3,-7.463574409E-3,9.239196777E-3,1.366488418E-2
8.271592720E-1,1.070100069E-2,5.609095097E-3,-4.744529724E-3,1.298013582E-2
8.321592720E-1,6.109237671E-3,-1.586675644E-3,-8.396148682E-3,1.050407717E-2
8.371592720E-1,3.885567188E-3,1.966595650E-3,-9.329795837E-3,1.029612651E-2
8.421592720E-1,5.886554718E-3,-5.628466606E-4,2.441406250E-3,6.397561042E-3
8.471592720E-1,3.528594971E-3,-5.837678909E-3,2.393722534E-4,6.825450651E-3
8.521592720E-1,3.978490829E-3,-3.368496895E-3,2.536773682E-4,5.219148668E-3
8.571592720E-1,-4.572808743E-3,-6.928801537E-3,-3.142929077E-2,3.250721749E-2
8.621592720E-1,1.096904278E-2,-1.705724001E-2,-6.289100647E-2,6.607986101E-2
8.671592720E-1,-1.096385717E-2,-1.688891649E-2,-7.516288757E-2,7.781324651E-2
8.721592720E-1,3.486096859E-3,-7.484138012E-3,-4.412460327E-2,4.489037544E-2
8.771592720E-1,1.561021805E-2,-1.634633541E-2,2.449035645E-3,2.273498107E-2
8.821592720E-1,5.905449390E-3,-2.217119932E-2,4.254913330E-2,4.834113317E-2
8.871592720E-1,-5.727887154E-3,-3.608930111E-2,1.060619354E-1,1.121801252E-1
8.921592720E-1,-5.593478680E-3,-1.181811094E-2,1.237440109E-1,1.244328533E-1
8.971592720E-1,4.480838776E-3,-9.019553661E-3,1.858425140E-1,1.861152070E-1
9.021592720E-1,9.921193123E-4,-9.582698345E-3,2.778463364E-1,2.780133073E-1
9.071592720E-1,-3.869694471E-2,2.366298437E-2,2.845878601E-1,2.881798752E-1
9.121592720E-1,-6.220167875E-2,3.449565172E-2,2.065238953E-1,2.184287484E-1
9.171592720E-1,-8.141511679E-2,3.249794245E-2,-1.808643341E-2,8.950785763E-2
9.221592720E-1,-7.601571083E-2,3.821271658E-2,-3.006601334E-1,3.124661834E-1
9.271592720E-1,-4.069501162E-2,3.170484304E-2,-4.717149734E-1,4.745274462E-1
9.321592720E-1,9.003877640E-4,3.833097219E-2,-4.084663391E-1,4.102618972E-1
9.371592720E-1,2.617210150E-2,6.879627705E-3,-1.768875122E-1,1.789455229E-1
9.421592720E-1,1.796555519E-2,-7.847487926E-3,5.861186981E-2,6.180368535E-2
9.471592720E-1,2.589708567E-2,-2.735632658E-2,1.500759125E-1,1.547314033E-1
9.521592720E-1,3.802216053E-2,-6.075835228E-2,1.156139374E-1,1.360288373E-1
9.571592720E-1,3.885412216E-2,-6.442123652E-2,6.374740601E-2,9.860765840E-2
9.621592720E-1,2.996104956E-2,-5.827242136E-2,8.979320526E-2,1.111582624E-1
9.671592720E-1,4.464089870E-3,-3.417110443E-2,1.282091141E-1,1.327598185E-1
9.721592720E-1,-2.160477638E-2,3.273069859E-3,1.454381943E-1,1.470705535E-1
9.771592720E-1,-4.364293814E-2,3.915250301E-2,1.634988785E-1,1.736937184E-1
9.821592720E-1,-7.233768702E-2,6.877940893E-2,1.446151733E-1,1.757182302E-1
9.871592720E-1,-7.626670599E-2,7.644033432E-2,1.195478439E-1,1.610944510E-1
9.921592720E-1,-6.525564194E-2,7.814532518E-2,8.084964752E-2,1.300063697E-1
9.971592720E-1,-6.208211184E-2,4.903030396E-2,2.267360687E-2,8.229369213E-2
1.002159272E0,-4.487186670E-2,1.509058475E-2,-6.533432007E-2,8.068322966E-2
1.007159272E0,-4.453003407E-3,-4.251062870E-3,-1.170415878E-1,1.172033876E-1
1.012159272E0,2.797067165E-2,-9.614884853E-3,-1.763057709E-1,1.787694866E-1
1.017159272E0,6.288182735E-2,-2.698308229E-2,-1.636571884E-1,1.773862629E-1
1.022159272E0,8.698213100E-2,-2.910655737E-2,-1.290464401E-1,1.583226658E-1
1.027159272E0,1.023672223E-1,-2.482312918E-2,-7.795906067E-2,1.310452253E-1
1.032159272E0,1.101723909E-1,-2.146232128E-2,-2.613067627E-2,1.152449530E-1
1.037159272E0,9.245395660E-2,-7.833719254E-3,1.729965210E-2,9.438421061E-2
1.042159272E0,6.993556023E-2,3.820836544E-3,1.383113861E-2,7.139244898E-2
1.047159272E0,4.670917988E-2,1.917660236E-2,4.950523376E-3,5.073457642E-2
1.052159272E0,3.258770704E-2,2.834367752E-2,6.574630737E-3,4.368693712E-2
1.057159272E0,1.182782650E-2,2.901989222E-2,-4.582405090E-3,3.167096557E-2
1.062159272E0,6.273210049E-3,3.252470493E-2,-3.697013855E-2,4.963870203E-2
1.067159272E0,-3.126919270E-3,2.453052998E-2,-4.703426361E-2,5.313893562E-2
1.072159272E0,-1.515388489E-3,2.514767647E-2,-2.927207947E-2,3.862067672E-2
1.077159272E0,3.260612488E-3,1.613157988E-2,-1.634597778E-2,2.319591457E-2
1.082159272E0,4.252970219E-3,2.184611559E-2,1.362800598E-2,2.609718508E-2
1.087159272E0,-1.138740778E-2,-1.276457310E-2,2.673244476E-2,3.173690258E-2
1.092159272E0,-1.872628927E-2,-2.391600609E-2,2.539634705E-2,3.959322796E-2
1.097159272E0,-2.258199453E-2,-3.772866726E-2,2.882671356E-2,5.257735468E-2
1.102159272E0,-3.234177828E-2,-5.030196905E-2,2.726078033E-2,6.572236193E-2
1.107159272E0,-4.435342550E-2,-4.403430223E-2,-8.757591248E-3,6.311055008E-2
1.112159272E0,-5.111712217E-2,-6.094300747E-2,-8.438110352E-3,7.998882450E-2
1.117159272E0,-4.569047689E-2,-3.025329113E-2,-1.442909241E-2,5.666639225E-2
1.122159272E0,-3.854793310E-2,-4.218888283E-2,-2.360248566E-2,6.182978497E-2
1.127159272E0,-3.542780876E-2,-3.790974617E-2,-3.489685059E-2,6.253054189E-2
1.132159272E0,-3.368026018E-2,-2.703785896E-2,-4.249286652E-2,6.058918590E-2
1.137159272E0,-3.631341457E-2,-1.299840212E-2,-2.987766266E-2,4.878829021E-2
1.142159272E0,-1.691353321E-2,-9.130120277E-3,-2.947044373E-2,3.518428279E-2
1.147159272E0,-1.419919729E-2,-1.420420408E-2,-2.512741089E-2,3.216773842E-2
1.152159272E0,-1.680344343E-2,2.332532406E-2,-8.698463440E-3,3.003480847E-2
1.157159272E0,-2.495849133E-2,2.386635542E-2,1.367568970E-3,3.456008471E-2
1.162159272E0,-9.657680988E-3,2.273678780E-2,2.193450928E-3,2.480007154E-2
1.167159272E0,-4.967927933E-3,2.670693398E-2,8.404731750E-3,2.843554371E-2
1.172159272E0,-6.863117218E-3,2.497714758E-2,1.705932617E-2,3.101581675E-2
1.177159272E0,-8.711934090E-3,1.584911346E-2,7.435798645E-3,1.955462336E-2
1.182159272E0,-1.366329193E-2,7.842779160E-4,2.225875854E-2,2.612954210E-2
1.187159272E0,-1.429742575E-2,1.652234793E-2,2.337646484E-2,3.199786669E-2
1.192159272E0,-1.262724400E-2,-1.977026463E-3,2.866268158E-2,3.138319996E-2
1.197159272E0,-5.908548832E-3,5.058646202E-3,2.855491638E-2,2.959533916E-2
1.202159272E0,8.448958397E-4,-3.627955914E-3,2.732753754E-2,2.758025056E-2
1.207159272E0,1.026135683E-2,-6.163120270E-3,2.559089661E-2,2.825196426E-2
1.212159272E0,1.521700621E-2,-1.756560802E-2,2.587318420E-2,3.477829099E-2
1.217159272E0,1.993596554E-2,-1.610463858E-2,2.228832245E-2,3.396426686E-2
1.222159272E0,2.003842592E-2,-2.067434788E-2,-1.647472382E-2,3.317203187E-2
1.227159272E0,2.818709612E-2,-2.198195457E-2,-2.170467377E-2,4.181879455E-2
1.232159272E0,2.575790882E-2,-1.043027639E-2,-2.689456940E-2,3.867270867E-2
1.237159272E0,2.659851313E-2,-1.491647959E-2,-4.351711273E-2,5.313869931E-2
1.242159272E0,1.941245794E-2,-1.391106844E-2,-2.537918091E-2,3.484916315E-2
1.247159272E0,1.287245750E-2,2.481937408E-4,3.063964844E-2,3.323476822E-2
1.252159272E0,1.746386290E-2,2.027642727E-2,1.615905762E-2,3.126076060E-2
1.257159272E0,2.227705717E-2,-6.633996964E-3,-1.172428131E-1,1.195247021E-1
1.262159272E0,2.779877186E-2,-4.720628262E-3,-1.622114182E-1,1.646438588E-1
1.267159272E0,3.100144863E-2,-1.939618587E-2,-5.649280548E-2,6.729590563E-2
1.272159272E0,1.775240898E-2,-2.127045393E-2,9.303092957E-2,9.706870809E-2
1.277159272E0,-1.147985458E-4,-4.278898239E-3,1.986865997E-1,1.987327025E-1
1.282159272E0,-2.291518450E-2,7.685065269E-3,2.047710419E-1,2.061924962E-1
1.287159272E0,-3.549343348E-2,9.690582752E-3,1.718139648E-1,1.757092192E-1
1.292159272E0,-4.578435421E-2,8.965730667E-4,1.565189362E-1,1.630803125E-1
1.297159272E0,-5.348843336E-2,1.428937912E-2,7.009124756E-2,8.931954905E-2
1.302159272E0,-4.249811172E-2,5.298435688E-3,-3.473281860E-3,4.296773915E-2
1.307159272E0,-3.173100948E-2,-1.641631126E-3,-5.023574829E-2,5.944057808E-2
1.312159272E0,-2.639514208E-2,-4.029393196E-3,-5.004596710E-2,5.672334932E-2
1.317159272E0,-1.332920790E-2,-1.585781574E-3,-5.335330963E-2,5.501598072E-2
1.322159272E0,-4.063189030E-3,2.673625946E-3,-5.318737030E-2,5.340930762E-2
1.327159272E0,5.389988422E-3,-1.492130756E-2,-5.195426941E-2,5.432258742E-2
1.332159272E0,2.526104450E-3,-1.340484619E-2,-7.833194733E-2,7.951078592E-2
1.337159272E0,1.549732685E-2,2.959191799E-3,-6.025409698E-2,6.228547310E-2
1.342159272E0,1.417088509E-2,1.721930504E-2,-4.000377655E-2,4.579978808E-2
1.347159272E0,2.605593204E-2,2.270907164E-2,-4.110908508E-2,5.370819682E-2
1.352159272E0,3.005766869E-2,1.596409082E-2,-4.011154175E-2,5.260467112E-2
1.357159272E0,3.295725584E-2,2.766376734E-2,-5.422878265E-2,6.922590270E-2
1.362159272E0,2.809566259E-2,2.606242895E-2,-6.276226044E-2,7.353718647E-2
1.367159272E0,3.672057390E-2,2.618050575E-2,-6.081199646E-2,7.570943364E-2
1.372159272E0,3.204452991E-2,3.190606833E-2,-4.075431824E-2,6.087498294E-2
1.377159272E0,2.816092968E-2,8.785605431E-3,-2.436542511E-2,3.826092999E-2
1.382159272E0,1.928067207E-2,7.926464081E-3,-4.195213318E-3,2.126435899E-2
1.387159272E0,1.357710361E-2,7.074475288E-3,3.690719604E-3,1.574824925E-2
1.392159272E0,3.853499889E-3,2.592742443E-3,9.162902832E-3,1.027280697E-2
1.397159272E0,-7.410168648E-3,-7.909774780E-3,1.531600952E-3,1.094627507E-2
1.402159272E0,-2.214640379E-2,-4.090487957E-3,-1.393032074E-2,2.648110890E-2
1.407159272E0,-1.191765070E-2,6.939411163E-3,-2.451229095E-2,2.812540192E-2
1.412159272E0,-1.762771606E-2,1.131534576E-2,-3.185081482E-2,3.812148775E-2
1.417159272E0,-1.438844204E-2,-2.109766006E-3,-2.924823761E-2,3.266401353E-2
1.422159272E0,-1.912379265E-2,-8.537292480E-3,-1.193237305E-2,2.410365812E-2
1.427159272E0,-2.293926477E-2,-2.197802067E-3,1.082420349E-3,2.306971686E-2
1.432159272E0,-2.127104998E-2,-7.627904415E-3,1.076412201E-2,2.503015812E-2
1.437159272E0,-1.590347290E-2,-1.422971487E-2,3.543758392E-2,4.136698672E-2
1.442159272E0,-7.517218590E-3,-2.236950397E-2,3.135776520E-2,3.924554397E-2
1.447159272E0,-1.436316967E-2,-1.621413231E-2,3.798770905E-2,4.372944967E-2
1.452159272E0,-1.459580660E-2,-1.772952080E-2,4.014968872E-2,4.625333482E-2
1.457159272E0,-9.196043015E-3,-1.256531477E-2,4.553413391E-2,4.812288118E-2
1.462159272E0,-4.332482815E-3,-1.414906979E-2,4.975986481E-2,5.191349274E-2
1.467159272E0,-9.727001190E-3,-1.563966274E-2,3.177356720E-2,3.672564738E-2
1.472159272E0,-1.104676723E-2,-1.577877998E-2,1.936531067E-2,2.731329752E-2
1.477159272E0,-1.500844955E-3,-2.909541130E-3,2.392482758E-2,2.414778126E-2
1.482159272E0,-1.608073711E-3,-9.941756725E-3,2.632617950E-2,2.818673722E-2
1.487159272E0,2.028942108E-4,-1.035398245E-2,2.134227753E-2,2.372211897E-2
1.492159272E0,-5.007028580E-3,-1.067954302E-2,9.606361389E-3,1.521200688E-2
1.497159272E0,-1.486873627E-2,-9.602844715E-3,4.033088684E-3,1.815378057E-2
1.502159272E0,-7.650256157E-4,-1.495480537E-2,-2.003479004E-2,2.501248248E-2
1.507159272E0,1.592028141E-2,-1.569235325E-2,-1.938819885E-2,2.959066686E-2
1.512159272E0,-1.325011253E-3,-1.514285803E-2,-1.478958130E-2,2.120833608E-2
1.517159272E0,9.078681469E-3,-8.493065834E-3,-1.088142395E-2,1.652150150E-2
1.522159272E0,5.467474461E-3,5.214214325E-4,1.800823212E-2,1.882715011E-2
1.527159272E0,1.877909899E-2,-1.510083675E-3,2.866268158E-2,3.429991584E-2
1.532159272E0,1.613724232E-2,1.974105835E-4,3.298664093E-2,3.672285447E-2
1.537159272E0,7.254421711E-3,-4.081308842E-3,2.893829346E-2,3.011160149E-2
1.542159272E0,-2.582132816E-3,-6.005942822E-3,2.329158783E-2,2.419166846E-2
1.547159272E0,5.513846874E-3,3.234088421E-3,1.295089722E-2,1.444256120E-2
1.552159272E0,-3.565788269E-3,-9.661912918E-5,7.448196411E-3,8.258317687E-3
1.557159272E0,-1.819610596E-3,3.513693810E-4,3.638267517E-3,4.083066701E-3
1.562159272E0,-9.801983833E-4,-1.276922226E-2,-1.035690308E-3,1.284859838E-2
1.567159272E0,-1.237046719E-2,-1.986533403E-2,-1.779174805E-2,2.939738514E-2
1.572159272E0,-6.770968437E-3,2.194702625E-3,4.353523254E-3,8.343614200E-3
1.577159272E0,9.782314301E-4,-1.258587837E-2,3.280639648E-4,1.262809950E-2
1.582159272E0,-7.351636887E-3,-8.004903793E-5,7.237434387E-3,1.031665785E-2
1.587159272E0,8.993506432E-3,7.354974747E-3,-1.662826538E-2,2.028492103E-2
1.592159272E0,3.970086575E-3,1.186966896E-3,-2.466201782E-3,4.822097993E-3
1.597159272E0,8.060038090E-3,-1.978337765E-3,-1.323699951E-3,8.404178477E-3
1.602159272E0,1.107120514E-2,-1.026928425E-3,9.832382202E-4,1.116211999E-2
1.607159272E0,7.902503014E-3,1.369178295E-3,-7.936477661E-3,1.128325666E-2
1.612159272E0,5.132198334E-3,4.447937012E-3,-2.697849274E-2,2.782018465E-2
1.617159272E0,-8.927702904E-3,5.209863186E-3,-1.480197906E-2,1.805395075E-2
1.622159272E0,6.523728371E-3,9.995639324E-3,-7.464408875E-3,1.407796992E-2
1.627159272E0,1.177114248E-2,1.005309820E-2,-1.262378693E-2,1.997459825E-2
1.632159272E0,9.023308754E-3,1.214247942E-2,2.288818359E-3,1.530028094E-2
1.637159272E0,6.331562996E-3,6.825327873E-3,7.612228394E-3,1.202579776E-2
1.642159272E0,-6.300270557E-3,4.092872143E-3,2.927780151E-4,7.518692070E-3
1.647159272E0,-4.955947399E-3,-2.412021160E-3,6.694793701E-3,8.671765876E-3
1.652159272E0,-8.864462376E-3,-1.304423809E-2,8.849143982E-3,1.808419724E-2
1.657159272E0,-1.243203878E-2,-2.276122570E-3,4.585266113E-3,1.344473829E-2
1.662159272E0,-5.211412907E-3,5.023181438E-3,7.472038269E-3,1.040300592E-2
1.667159272E0,-3.006875515E-3,1.669466496E-3,7.655143738E-3,8.392237150E-3
1.672159272E0,-1.844644547E-3,-7.717609406E-4,5.640983582E-3,5.984899683E-3
1.677159272E0,-1.162463427E-2,-9.236872196E-3,8.596420288E-3,1.715664220E-2
1.682159272E0,-9.367823601E-3,-8.232772350E-3,1.314640045E-2,1.812077549E-2
1.687159272E0,9.398758411E-3,-7.040023804E-3,-5.042076111E-3,1.277971542E-2
1.692159272E0,8.278489113E-4,-6.879985332E-3,-1.023578644E-2,1.236085984E-2
1.697159272E0,4.048287868E-3,-4.477262497E-3,-5.847930908E-3,8.404332813E-3
1.702159272E0,7.995486259E-3,1.270651817E-3,-5.810737610E-3,9.965291172E-3
1.707159272E0,3.118216991E-3,7.906556129E-4,-5.772590637E-3,6.608420096E-3
1.712159272E0,3.863215446E-3,3.222644329E-3,-5.723953247E-3,7.620597800E-3
1.717159272E0,3.620386124E-4,-4.155278206E-3,1.760482788E-3,4.527329077E-3
1.722159272E0,4.396557808E-3,-1.657426357E-3,3.811836243E-3,6.050361826E-3
1.727159272E0,-1.392704248E-2,2.968668938E-3,-9.871482849E-3,1.732690628E-2
1.732159272E0,-3.972530365E-3,-5.923986435E-3,6.866455078E-5,7.132974667E-3
1.737159272E0,-3.470838070E-3,-2.584099770E-3,2.267837524E-3,4.885424809E-3
1.742159272E0,-5.248367786E-3,-3.009021282E-3,1.492309570E-2,1.610274383E-2
1.747159272E0,-3.222644329E-3,-1.916736364E-2,1.761436462E-2,2.623049955E-2
1.752159272E0,-1.766145229E-3,-6.481349468E-3,2.621173859E-2,2.705886915E-2
1.757159272E0,3.542780876E-3,-4.876852036E-4,1.914978027E-2,1.948084233E-2
1.762159272E0,-5.294501781E-3,-1.098513603E-4,3.366470337E-3,6.275104698E-3
1.767159272E0,5.995869637E-3,8.378207684E-3,7.943153381E-3,1.300916993E-2
1.772159272E0,-8.899629116E-3,1.502811909E-3,6.419181824E-3,1.107554682E-2
1.777159272E0,-1.124745607E-2,-5.056560040E-3,7.315635681E-3,1.433850037E-2
1.782159272E0,-6.023287773E-3,-2.168834209E-3,1.418113708E-3,6.557048415E-3
1.787159272E0,9.474158287E-4,-7.010102272E-3,-3.054618835E-3,7.705181818E-3
1.792159272E0,3.414213657E-3,-1.375317574E-3,-5.797386169E-3,6.867171159E-3
1.797159272E0,-6.220161915E-3,-4.769861698E-3,-2.063274384E-2,2.207152267E-2
1.802159272E0,1.393002272E-2,-6.037771702E-3,-2.785682678E-3,1.543568100E-2
1.807159272E0,1.919591427E-2,-4.980325699E-3,-1.224040985E-2,2.330481500E-2
1.812159272E0,6.094932556E-3,1.509541273E-2,-1.752758026E-2,2.392144975E-2
1.817159272E0,-2.473890781E-3,-1.173496246E-3,-2.013492584E-2,2.032024773E-2
1.822159272E0,4.655122757E-4,6.777346134E-3,-2.651500702E-2,2.737142158E-2
1.827159272E0,1.764237881E-3,-1.808047295E-3,-1.735877991E-2,1.754163077E-2
1.832159272E0,6.288230419E-3,-4.723668098E-4,-1.940536499E-2,2.040424374E-2
1.837159272E0,1.430630684E-3,8.586764336E-3,-1.359176636E-2,1.614048756E-2
1.842159272E0,-2.154111862E-3,2.986073494E-3,-2.655982971E-3,4.539942551E-3
1.847159272E0,-7.352173328E-3,1.092553139E-3,1.001358032E-2,1.247076244E-2
1.852159272E0,-8.489310741E-3,-1.126706600E-3,2.117919922E-2,2.284505076E-2
1.857159272E0,-1.433503628E-2,-2.590298653E-3,2.956104279E-2,3.295539657E-2
1.862159272E0,-4.873812199E-3,2.800524235E-3,2.490615845E-2,2.553260092E-2
1.867159272E0,-7.391750813E-3,-7.060170174E-4,2.726840973E-2,2.826132710E-2
1.872159272E0,-1.202768087E-2,-1.550930738E-2,1.634502411E-2,2.554140826E-2
1.877159272E0,-5.602598190E-3,-2.275604010E-2,-2.317428589E-3,2.354988201E-2
1.882159272E0,-3.300189972E-3,-2.860444784E-2,-6.011962891E-3,2.941512176E-2
1.887159272E0,-5.533158779E-3,-1.213109493E-2,-5.955696106E-3,1.460306908E-2
1.892159272E0,-1.200079918E-3,-7.848203182E-3,-1.791572571E-2,1.959611473E-2
1.897159272E0,-3.018796444E-3,-1.327484846E-2,-1.009368896E-2,1.694748626E-2
1.902159272E0,-1.190632582E-2,1.155173779E-2,-1.426792145E-2,2.188096942E-2
1.907159272E0,1.494646072E-3,1.363682747E-2,-2.400684357E-2,2.765005549E-2
1.912159272E0,7.559478283E-3,9.700238705E-3,-1.916980743E-2,2.277546618E-2
1.917159272E0,1.028233767E-2,1.024174690E-2,-2.438545227E-2,2.837728193E-2
1.922159272E0,4.749953747E-3,5.801200867E-3,9.070396423E-3,1.176809600E-2
1.927159272E0,-4.739046097E-3,-3.193914890E-3,8.390426636E-3,1.015179341E-2
1.932159272E0,-2.942085266E-4,-3.610014915E-3,1.510047913E-2,1.552878734E-2
1.937159272E0,3.446936607E-4,-1.361298561E-2,1.866912842E-2,2.310775945E-2
1.942159272E0,3.972709179E-3,-2.927803993E-2,-2.476978302E-2,3.855552089E-2
1.947159272E0,-3.624200821E-3,-1.910281181E-2,-5.862998962E-2,6.176995980E-2
1.952159272E0,8.221805096E-3,-1.383656263E-2,-6.190872192E-2,6.396669754E-2
1.957159272E0,8.283317089E-3,-6.576120853E-3,-3.693294525E-2,3.841745895E-2
1.962159272E0,5.783200264E-3,-6.796598434E-3,-1.516342163E-3,9.051985922E-3
1.967159272E0,1.402384043E-2,-7.474422455E-3,4.776763916E-2,5.034165713E-2
1.972159272E0,6.132602692E-3,-5.762398243E-3,8.661842346E-2,8.702623359E-2
1.977159272E0,1.361936331E-2,-5.033075809E-3,1.416721344E-1,1.424142288E-1
1.982159272E0,1.197391748E-2,-2.669453621E-3,2.247524261E-1,2.250869915E-1
1.987159272E0,-1.247757673E-2,5.942285061E-3,2.996978760E-1,3.000163621E-1
1.992159272E0,-5.168622732E-2,7.909238338E-3,2.097692490E-1,2.161877886E-1
1.997159272E0,-7.468450069E-2,2.251267433E-2,1.880645752E-3,7.802648254E-2
2.002159272E0,-6.627726555E-2,4.234784842E-2,-2.433786392E-1,2.557717307E-1
2.007159272E0,-4.400986433E-2,2.846831083E-2,-3.871660233E-1,3.906978915E-1
2.012159272E0,-4.564404488E-3,3.230452538E-2,-3.873224258E-1,3.886940670E-1
2.017159272E0,3.447312117E-2,2.015519142E-2,-2.091665268E-1,2.129442738E-1
2.022159272E0,3.106474876E-2,-1.612246037E-3,4.851531982E-2,5.763119130E-2
2.027159272E0,2.379029989E-2,-2.589792013E-2,2.112760544E-1,2.141827533E-1
2.032159272E0,2.671194077E-2,-4.970055819E-2,1.751337051E-1,1.839986085E-1
2.037159272E0,2.951860428E-2,-6.155258417E-2,5.954170227E-2,9.058301676E-2
2.042159272E0,2.839422226E-2,-6.682544947E-2,1.404762268E-3,7.262124972E-2
2.047159272E0,5.243122578E-3,-5.386537313E-2,6.485366821E-2,8.446873409E-2
2.052159272E0,-2.683568001E-2,-2.656900883E-2,1.622524261E-1,1.665890625E-1
2.057159272E0,-5.754870176E-2,1.871275902E-2,1.871728897E-1,1.967122545E-1
2.062159272E0,-7.471179962E-2,4.719763994E-2,1.538219452E-1,1.773997211E-1
2.067159272E0,-8.299195766E-2,6.798231602E-2,1.025781631E-1,1.484302526E-1
2.072159272E0,-7.366794348E-2,7.692158222E-2,4.533672333E-2,1.157554067E-1
2.077159272E0,-5.463737249E-2,6.178963184E-2,-1.977348328E-2,8.481858120E-2
2.082159272E0,-4.362553358E-2,5.679720640E-2,-6.848144531E-2,9.908994998E-2
2.087159272E0,-2.282857895E-4,8.416354656E-3,-1.105728149E-1,1.108928967E-1
2.092159272E0,1.654994488E-2,-1.302093267E-2,-1.324853897E-1,1.341485142E-1
2.097159272E0,4.986369610E-2,-3.437954187E-2,-1.298465729E-1,1.432776102E-1
2.102159272E0,8.553987741E-2,-4.281198978E-2,-1.104621887E-1,1.461226616E-1
2.107159272E0,9.515959024E-2,-4.006576538E-2,-6.328773499E-2,1.211030576E-1
2.112159272E0,9.457153082E-2,-3.128790855E-2,-1.217174530E-2,1.003536698E-1
2.117159272E0,9.251284599E-2,-2.294814587E-2,1.598072052E-2,9.664692184E-2
2.122159272E0,8.224225044E-2,-1.700896025E-2,4.132270813E-3,8.408429193E-2
2.127159272E0,6.410235167E-2,-1.611948013E-3,8.090972900E-3,6.463105838E-2
2.132159272E0,3.947824240E-2,1.229953766E-2,-2.799034119E-3,4.144447902E-2
2.137159272E0,2.108275890E-2,3.448224068E-2,-3.183841705E-2,5.145087410E-2
2.142159272E0,1.517158747E-2,3.441768885E-2,-4.808235168E-2,6.104643245E-2
2.147159272E0,1.249682903E-2,3.301924467E-2,-5.099868774E-2,6.202666690E-2
2.152159272E0,9.308815002E-3,3.922170401E-2,-3.610706329E-2,5.411761378E-2
2.157159272E0,-1.686215401E-4,3.097689152E-2,-2.804851532E-2,4.178893936E-2
2.162159272E0,-1.843571663E-3,2.277612686E-2,-2.128505707E-2,3.122826229E-2
2.167159272E0,-8.225023746E-3,9.983778000E-5,-6.047248840E-3,1.020931936E-2
2.172159272E0,-3.365039825E-3,-3.640115261E-3,6.711006165E-3,8.343352796E-3
2.177159272E0,-1.437550783E-2,-1.128655672E-2,7.842063904E-3,1.988817624E-2
2.182159272E0,-3.755068779E-2,-2.427202463E-2,2.014827728E-2,4.904221050E-2
2.187159272E0,-4.588055611E-2,-3.489756584E-2,-8.789062500E-3,5.831048919E-2
2.192159272E0,-5.039817095E-2,-3.651708364E-2,-8.895874023E-3,6.286978294E-2
2.197159272E0,-3.211367130E-2,-5.403202772E-2,-4.712104797E-3,6.303135597E-2
2.202159272E0,-3.864449263E-2,-3.950768709E-2,-2.085781097E-2,5.907031766E-2
2.207159272E0,-4.412597418E-2,-3.383427858E-2,-2.489852905E-2,6.092451685E-2
2.212159272E0,-4.090625048E-2,-3.538453579E-2,-2.674579620E-2,6.033841493E-2
2.217159272E0,-4.087799788E-2,-3.691852093E-2,-1.956748962E-2,5.845403791E-2
2.222159272E0,-2.590376139E-2,-2.042025328E-2,-7.340431213E-3,3.379161920E-2
2.227159272E0,-2.593272924E-2,5.482733250E-3,-7.249832153E-3,2.747957198E-2
2.232159272E0,-2.173352242E-2,3.393173218E-3,-2.154350281E-3,2.210205525E-2
2.237159272E0,-2.533048391E-2,1.920408010E-2,3.308296204E-3,3.195895699E-2
2.242159272E0,-1.990026236E-2,1.421099901E-2,-2.255439758E-3,2.455727882E-2
2.247159272E0,-1.212573051E-2,2.457034588E-2,-3.464698792E-3,2.761773660E-2
2.252159272E0,-1.247227192E-3,2.615028620E-2,1.387596130E-2,2.962997378E-2
2.257159272E0,-1.155358553E-2,2.019977570E-2,1.191997528E-2,2.614578527E-2
2.262159272E0,-1.201140881E-2,5.969941616E-3,2.023696899E-2,2.427857200E-2
2.267159272E0,-1.944243908E-3,8.710741997E-3,1.665973663E-2,1.889983955E-2
2.272159272E0,-1.327157021E-3,1.477241516E-3,2.428722382E-2,2.436827505E-2
2.277159272E0,2.436697483E-3,-1.212674379E-2,1.188850403E-2,1.715610497E-2
2.282159272E0,4.284918308E-3,-1.134634018E-2,-2.269744873E-4,1.213060088E-2
2.287159272E0,4.140019417E-3,-1.437765360E-2,-2.865791321E-3,1.523382564E-2
2.292159272E0,8.746922016E-3,-1.358383894E-2,-6.220817566E-3,1.731265134E-2
2.297159272E0,2.337080240E-2,-6.801426411E-3,-7.498741150E-3,2.546929377E-2
2.302159272E0,2.043902874E-2,-6.058871746E-3,-2.717971802E-3,2.149072343E-2
2.307159272E0,2.141535282E-2,-5.253314972E-3,-7.414817810E-3,2.326358050E-2
2.312159272E0,2.680689096E-2,-4.718959332E-3,-6.083488464E-3,2.789062230E-2
2.317159272E0,1.961714029E-2,-1.292145252E-2,-8.402824402E-3,2.494801769E-2
2.322159272E0,1.942181587E-2,-7.241725922E-3,-2.195835114E-2,3.019633605E-2
2.327159272E0,2.588212490E-2,-1.785576344E-3,-1.957321167E-2,3.249897364E-2
2.332159272E0,2.126801014E-2,3.477573395E-3,5.005550385E-2,5.449747918E-2
2.337159272E0,2.893203497E-2,1.783126593E-2,6.838035583E-2,7.636026294E-2
2.342159272E0,3.025060892E-2,1.239734888E-2,-3.561973572E-2,4.834831095E-2
2.347159272E0,3.877693415E-2,-6.906986237E-4,-1.547117233E-1,1.594987305E-1
2.352159272E0,3.111016750E-2,-1.836878061E-2,-1.121425629E-1,1.178185428E-1
2.357159272E0,2.768415213E-2,-1.868236065E-2,2.769184113E-2,4.338526182E-2
2.362159272E0,1.337039471E-2,-1.629227400E-2,1.684503555E-1,1.697637415E-1
2.367159272E0,-1.169782877E-2,-9.401619434E-3,2.249927521E-1,2.254927230E-1
2.372159272E0,-3.494864702E-2,1.123535633E-2,1.748018265E-1,1.786150041E-1
2.377159272E0,-4.119896889E-2,3.999710083E-3,7.253265381E-2,8.351250557E-2
2.382159272E0,-4.570305347E-2,7.837891579E-3,-2.421092987E-2,5.231033136E-2
2.387159272E0,-4.070740938E-2,9.227633476E-3,-6.062507629E-2,7.360463487E-2
2.392159272E0,-2.923655510E-2,1.161754131E-2,-7.478427887E-2,8.113218712E-2
2.397159272E0,-1.826602221E-2,1.326799393E-3,-7.063007355E-2,7.296584991E-2
2.402159272E0,1.213353872E-2,-7.571339607E-3,-1.934432983E-2,2.405724511E-2
2.407159272E0,6.796300411E-3,-1.387995481E-2,3.955841064E-3,1.595279046E-2
2.412159272E0,1.882755756E-2,-1.388037205E-2,2.326011658E-2,3.298749271E-2
2.417159272E0,1.161396503E-2,-8.164525032E-3,3.466606140E-3,1.461372680E-2
2.422159272E0,2.273619175E-2,-6.978988647E-3,-3.286743164E-2,4.056980109E-2
2.427159272E0,2.452266216E-2,-2.389490604E-3,-5.634880066E-2,6.150006472E-2
2.432159272E0,2.693247795E-2,7.759273052E-3,-6.386947632E-2,6.974865369E-2
2.437159272E0,1.650536060E-2,1.613658667E-2,-6.178474426E-2,6.595582599E-2
2.442159272E0,1.651084423E-2,1.963776350E-2,-4.342269897E-2,5.043590506E-2
2.447159272E0,2.635186911E-2,1.913160086E-2,-4.520320892E-2,5.571148224E-2
2.452159272E0,1.352351904E-2,1.528781652E-2,-3.000164032E-2,3.628637931E-2
2.457159272E0,2.152717113E-2,1.864165068E-2,-2.294063568E-2,3.656778640E-2
2.462159272E0,1.538389921E-2,1.183480024E-2,-1.392269135E-2,2.388656916E-2
2.467159272E0,7.213592529E-3,8.583962917E-3,-3.000259399E-3,1.160697605E-2
2.472159272E0,-2.737045288E-3,1.763284206E-3,-6.752967834E-3,7.496876861E-3
2.477159272E0,-1.492720842E-2,5.248248577E-3,-1.886558533E-2,2.462267195E-2
2.482159272E0,-1.651442051E-2,5.381166935E-3,-1.530647278E-3,1.743633916E-2
2.487159272E0,-9.269893169E-3,4.677593708E-3,-1.418781281E-2,1.758137749E-2
2.492159272E0,-2.244102955E-2,3.995776176E-3,-8.082389832E-3,2.418452108E-2
2.497159272E0,-1.201462746E-2,3.288388252E-3,-1.874160767E-2,2.250361367E-2
2.502159272E0,-1.486045122E-2,2.588450909E-3,-1.915550232E-2,2.438168078E-2
2.507159272E0,-1.734906435E-2,5.035758018E-3,-2.726745605E-2,3.270876109E-2
2.512159272E0,-2.922350168E-2,1.956641674E-3,-6.181716919E-3,2.993417982E-2
2.517159272E0,-1.845878363E-2,-4.065394402E-3,1.372814178E-2,2.336056509E-2
2.522159272E0,-2.264243364E-2,-6.018936634E-3,4.633998871E-2,5.192592756E-2
2.527159272E0,-2.390336990E-2,-1.936227083E-2,4.059505463E-2,5.093355559E-2
2.532159272E0,-2.746248245E-2,-2.129328251E-2,5.380535126E-2,6.405160143E-2
2.537159272E0,-2.946352959E-2,-2.445363998E-2,3.710079193E-2,5.331555914E-2
2.542159272E0,-2.835261822E-2,-2.143293619E-2,3.845310211E-2,5.236299051E-2
2.547159272E0,-1.885879040E-2,-1.983106136E-2,2.903556824E-2,3.989973926E-2
2.552159272E0,-3.405678272E-2,-1.993298531E-2,3.110790253E-2,5.024828308E-2
2.557159272E0,-1.647293568E-2,-1.606619358E-2,1.225566864E-2,2.607070386E-2
2.562159272E0,-2.082604170E-2,-2.860939503E-2,1.310920715E-2,3.773688923E-2
2.567159272E0,-1.596951485E-2,-1.839816570E-2,1.205444336E-2,2.718138169E-2
2.572159272E0,-8.691370487E-3,-1.302599907E-3,1.602077484E-2,1.827298317E-2
2.577159272E0,-8.201718330E-3,3.504216671E-3,4.698753357E-3,1.008097223E-2
2.582159272E0,4.142940044E-3,-3.753125668E-3,1.310825348E-2,1.425048118E-2
2.587159272E0,7.420003414E-3,1.084530354E-2,1.704692841E-2,2.152382000E-2
2.592159272E0,1.637601852E-2,-6.588518620E-3,6.499290466E-3,1.881019237E-2
2.597159272E0,1.293599606E-2,-2.255076170E-2,-4.203796387E-3,2.633531377E-2
2.602159272E0,2.353054285E-2,-1.050335169E-2,7.299423218E-3,2.678224081E-2
2.607159272E0,2.766543627E-2,-6.170809269E-3,-5.331039429E-4,2.835029895E-2
2.612159272E0,1.628148556E-2,1.952469349E-3,1.594638824E-2,2.287326401E-2
2.617159272E0,1.008915901E-2,-2.897500992E-3,2.572250366E-2,2.778189764E-2
2.622159272E0,1.392376423E-2,6.749689579E-3,1.735687256E-2,2.325275349E-2
2.627159272E0,-4.648685455E-3,1.345944405E-2,2.536392212E-2,2.908772002E-2
2.632159272E0,-7.722377777E-4,2.618491650E-3,2.323246002E-2,2.339230746E-2
2.637159272E0,-3.835141659E-3,-5.476653576E-3,1.336956024E-2,1.494814995E-2
2.642159272E0,-4.598140717E-3,-3.351807594E-3,1.229000092E-2,1.354332436E-2
2.647159272E0,-1.035946608E-2,2.211928368E-3,3.685951233E-3,1.121594405E-2
2.652159272E0,-3.837108612E-3,4.418194294E-3,-7.801055908E-4,5.903592809E-3
2.657159272E0,2.725601196E-3,-1.521217823E-2,8.115768433E-3,1.745580034E-2
2.662159272E0,7.717669010E-3,-1.445698738E-2,-7.881164551E-3,1.818459936E-2
2.667159272E0,-1.004445553E-2,-5.678534508E-3,-1.738643646E-2,2.086684005E-2
2.672159272E0,3.511369228E-3,-1.294642687E-2,-1.414012909E-2,1.949058576E-2
2.677159272E0,6.757080555E-3,-3.793239594E-3,-1.576423645E-2,1.756581780E-2
2.682159272E0,6.367266178E-3,2.561509609E-3,-1.021003723E-2,1.230236848E-2
2.687159272E0,1.847410202E-2,3.484427929E-3,-1.567840576E-3,1.886509495E-2
2.692159272E0,1.701229811E-2,5.093276501E-3,-2.120971680E-3,1.788458200E-2
2.697159272E0,1.450359821E-3,9.580314159E-3,-1.640510559E-2,1.905291192E-2
2.702159272E0,-3.712713718E-3,5.091249943E-3,-3.266334534E-3,7.097465070E-3
2.707159272E0,5.912601948E-3,6.106495857E-3,-7.613182068E-3,1.141090245E-2
2.712159272E0,1.100361347E-3,8.069515228E-3,-4.185676575E-3,9.156842223E-3
2.717159272E0,-9.752631187E-3,7.233738899E-3,-5.004882812E-3,1.313353134E-2
2.722159272E0,-5.052387714E-3,3.613710403E-3,-3.207206726E-3,6.990829670E-3
2.727159272E0,-1.246923208E-2,4.738569260E-5,2.092361450E-3,1.264365337E-2
2.732159272E0,-1.676976681E-3,8.623778820E-3,6.388664246E-3,1.086263517E-2
2.737159272E0,-1.020437479E-2,4.820525646E-3,1.386642456E-3,1.137055450E-2
2.742159272E0,-1.410275698E-2,1.190406084E-2,-1.042842865E-2,2.119779571E-2
2.747159272E0,-7.351815701E-3,2.181583643E-2,-2.578735352E-3,2.316527119E-2
2.752159272E0,-3.370881081E-3,9.601950645E-3,1.851081848E-3,1.034344234E-2
2.757159272E0,-1.202082634E-2,-9.274840355E-3,-1.573562622E-3,1.526430571E-2
2.762159272E0,-9.044170380E-3,-4.400432110E-3,-7.225990295E-3,1.238449661E-2
2.767159272E0,-2.655446529E-3,-4.783332348E-3,-1.964092255E-2,2.038866114E-2
2.772159272E0,2.704083920E-3,-5.267620087E-3,-1.163959503E-2,1.305909889E-2
2.777159272E0,1.411634684E-2,-2.745747566E-3,-5.382537842E-3,1.535519753E-2
2.782159272E0,3.248453140E-4,-6.474077702E-3,2.707481384E-3,7.024931459E-3
2.787159272E0,-7.367730141E-3,5.460739136E-3,1.499462128E-2,1.757673993E-2
2.792159272E0,-1.012217999E-2,-1.352471113E-2,1.483154297E-2,2.248001347E-2
2.797159272E0,-8.147001266E-3,-1.620149612E-2,9.204864502E-3,2.033695250E-2
2.802159272E0,-4.217267036E-3,-1.477587223E-2,1.191139221E-2,1.944204222E-2
2.807159272E0,-1.306867599E-2,-7.098317146E-4,1.183700562E-2,1.764678031E-2
2.812159272E0,-4.903316498E-3,-1.008486748E-2,4.622459412E-3,1.212906409E-2
2.817159272E0,-1.191204786E-2,-7.623910904E-3,1.622772217E-2,2.152579542E-2
2.822159272E0,-1.027566195E-2,-2.654075623E-3,4.023551941E-3,1.134999190E-2
2.827159272E0,-8.146941662E-3,-5.640625954E-3,-8.249282837E-4,9.943330743E-3
2.832159272E0,-3.784120083E-3,-8.964657784E-3,5.529403687E-3,1.119191490E-2
2.837159272E0,4.023492336E-3,-6.689548492E-3,1.159858704E-2,1.398090737E-2
2.842159272E0,-1.238298416E-2,-1.038491726E-2,2.057838440E-2,2.616590736E-2
2.847159272E0,-7.447719574E-3,-1.396661997E-2,1.847267151E-3,1.593572703E-2
2.852159272E0,1.067221165E-3,-3.228724003E-3,6.263732910E-3,7.127269440E-3
2.857159272E0,4.463791847E-3,-1.051783562E-2,1.198005676E-2,1.655512198E-2
2.862159272E0,5.356311798E-3,-1.046293974E-2,1.811981201E-3,1.189312658E-2
2.867159272E0,-2.501428127E-3,-4.252254963E-3,3.381729126E-3,5.981212822E-3
2.872159272E0,-1.171785593E-2,-8.375763893E-3,-2.041816711E-3,1.454752845E-2
2.877159272E0,-9.354770184E-3,-5.964279175E-3,5.755424500E-3,1.249837039E-2
2.882159272E0,5.215704441E-3,-1.059728861E-2,1.675605774E-3,1.192953282E-2
2.887159272E0,7.039666176E-3,-1.114112139E-2,-2.527236938E-4,1.318125013E-2
2.892159272E0,9.513854980E-3,4.120409489E-3,-9.428977966E-3,1.401416556E-2
2.897159272E0,7.539987564E-5,6.367325783E-3,-1.248073578E-2,1.401132714E-2
2.902159272E0,3.141105175E-3,2.881228924E-3,-6.514549255E-3,7.785073785E-3
2.907159272E0,8.663356304E-3,1.355892420E-2,-1.002120972E-2,1.895581209E-2
2.912159272E0,1.809531450E-2,1.040101051E-3,-1.648330688E-2,2.449942087E-2
2.917159272E0,1.038312912E-4,8.167803288E-3,-2.601051331E-2,2.726298945E-2
2.922159272E0,4.728019238E-3,1.288712025E-3,-1.416492462E-2,1.498866352E-2
2.927159272E0,3.204882145E-3,1.002097130E-2,-6.678581238E-3,1.246172471E-2
2.932159272E0,-2.203583717E-3,5.436480045E-3,-1.856040955E-2,1.946535124E-2
2.937159272E0,-2.036273479E-3,1.624000072E-2,-1.263523102E-2,2.067687346E-2
2.942159272E0,-6.889462471E-3,4.637598991E-3,7.131576538E-3,1.094675301E-2
2.947159272E0,-5.186438560E-3,6.168663502E-3,-4.482269287E-5,8.059377359E-3
2.952159272E0,-4.415750504E-3,7.273674011E-3,2.833366394E-3,8.968453114E-3
2.957159272E0,1.064777374E-3,-1.644015312E-3,1.767444611E-2,1.778264835E-2
2.962159272E0,1.215755939E-3,3.738522530E-3,1.893424988E-2,1.933805656E-2
2.967159272E0,-1.094311476E-2,5.062878132E-3,1.990509033E-2,2.327223919E-2
2.972159272E0,-1.352787018E-2,-5.680680275E-3,2.546787262E-2,2.939193658E-2
2.977159272E0,-6.881356239E-3,-8.600234985E-3,1.445102692E-2,1.817001058E-2
2.982159272E0,-7.822990417E-3,-7.118940353E-3,-4.396438599E-4,1.058639587E-2
2.987159272E0,-3.960549831E-3,-1.165229082E-2,-2.788543701E-3,1.261894656E-2
2.992159272E0,-6.493926048E-4,-1.590573788E-2,-4.887580872E-3,1.665240688E-2
2.997159272E0,-1.082623005E-2,-6.900489330E-3,-1.932716370E-2,2.320265646E-2
3.002159272E0,-7.196307182E-3,1.722216606E-3,-1.758480072E-2,1.907820965E-2
3.007159272E0,-7.827579975E-3,-2.138912678E-3,-2.863311768E-2,2.976073560E-2
3.012159272E0,6.340742111E-3,8.480608463E-3,-2.430629730E-2,2.651267280E-2
3.017159272E0,1.124614477E-2,7.547676563E-3,-5.655288696E-3,1.467738001E-2
3.022159272E0,-6.468236446E-3,1.923441887E-3,-1.532936096E-2,1.674894083E-2
3.027159272E0,2.097326517E-2,1.024603844E-2,2.155399323E-2,3.177158761E-2
3.032159272E0,1.366055012E-2,-5.737543106E-4,1.489734650E-2,2.022055282E-2
3.037159272E0,4.406034946E-3,-7.829487324E-3,-1.169204712E-3,9.059859566E-3
3.042159272E0,-1.939356327E-3,-1.242548227E-2,-3.762626648E-2,3.967227800E-2
3.047159272E0,-8.324801922E-3,-1.419836283E-2,-6.481647491E-2,6.687354675E-2
3.052159272E0,1.029253006E-3,-1.986008883E-2,-6.405639648E-2,6.707238195E-2
3.057159272E0,1.234406233E-2,-9.157240391E-3,-4.512691498E-2,4.767252229E-2
3.062159272E0,1.261007786E-2,5.721926689E-3,-1.148128510E-2,1.798817434E-2
3.067159272E0,-7.349491119E-3,-3.333926201E-3,5.519866943E-2,5.578551058E-2
3.072159272E0,2.744257450E-3,1.639842987E-3,9.393978119E-2,9.399416218E-2
3.077159272E0,1.339370012E-2,3.013551235E-3,1.314191818E-1,1.321343031E-1
3.082159272E0,1.068872213E-2,-1.465678215E-4,2.262411118E-1,2.264935119E-1
3.087159272E0,-1.615017653E-2,1.237517595E-2,3.041048050E-1,3.047846873E-1
3.092159272E0,-5.975025892E-2,-1.549720764E-4,2.350835800E-1,2.425580488E-1
3.097159272E0,-8.322244883E-2,1.789116859E-2,-2.465534210E-2,8.862254677E-2
3.102159272E0,-7.524693012E-2,1.372921467E-2,-2.779178619E-1,2.882515044E-1
3.107159272E0,-4.902207851E-2,4.311859608E-2,-3.857364655E-1,3.912224409E-1
3.112159272E0,-1.001667976E-2,5.126214027E-2,-3.334646225E-1,3.375304362E-1
3.117159272E0,3.057515621E-2,3.098827600E-2,-1.762504578E-1,1.815470663E-1
3.122159272E0,4.267942905E-2,9.628891945E-3,3.806972504E-2,5.799614805E-2
3.127159272E0,3.273189068E-2,-2.757090330E-2,1.797132492E-1,1.847386893E-1
3.132159272E0,2.142715454E-2,-5.702018738E-2,1.553087234E-1,1.668269292E-1
3.137159272E0,2.274638414E-2,-6.388133764E-2,-9.636878967E-3,6.849155223E-2
3.142159272E0,3.367918730E-2,-7.514917850E-2,-4.220867157E-2,9.253787680E-2
3.147159272E0,2.094906569E-2,-6.417399645E-2,4.115772247E-2,7.906404551E-2
3.152159272E0,-1.822060347E-2,-4.284942150E-2,1.603822708E-1,1.670045991E-1
3.157159272E0,-5.526393652E-2,-5.406141281E-3,2.227954865E-1,2.296108835E-1
3.162159272E0,-8.162051439E-2,2.324974537E-2,2.119646072E-1,2.283231345E-1
3.167159272E0,-8.089268208E-2,6.717693806E-2,1.376266479E-1,1.731977518E-1
3.172159272E0,-8.338928223E-2,5.828809738E-2,7.444953918E-2,1.260714423E-1
3.177159272E0,-6.284326315E-2,5.028146505E-2,-4.167556763E-4,8.048400547E-2
3.182159272E0,-4.468446970E-2,3.392791748E-2,-5.261611938E-2,7.691723757E-2
3.187159272E0,-1.581501961E-2,1.780623198E-2,-9.939670563E-2,1.022099889E-1
3.192159272E0,1.251429319E-2,1.784682274E-3,-1.092853546E-1,1.100140053E-1
3.197159272E0,3.756517172E-2,-1.787686348E-2,-1.180219650E-1,1.251395565E-1
3.202159272E0,6.867170334E-2,-3.031384945E-2,-1.067647934E-1,1.305122731E-1
3.207159272E0,8.555984497E-2,-4.448843002E-2,-5.614662170E-2,1.115892047E-1
3.212159272E0,9.968578815E-2,-3.555136919E-2,-3.412246704E-2,1.112002651E-1
3.217159272E0,1.015955210E-1,-2.144896984E-2,-1.065826416E-2,1.043805862E-1
3.222159272E0,9.149307013E-2,-9.988367558E-3,4.843711853E-3,9.216404349E-2
3.227159272E0,6.666845083E-2,5.339145660E-3,-4.187583923E-3,6.701286945E-2
3.232159272E0,5.630272627E-2,3.489494324E-2,-1.686477661E-2,6.835257668E-2
3.237159272E0,4.380363226E-2,3.998792171E-2,-2.763652802E-2,6.543370510E-2
3.242159272E0,2.823293209E-2,3.040009737E-2,-4.743289948E-2,6.301701617E-2
3.247159272E0,2.130872011E-2,3.505069017E-2,-4.711627960E-2,6.247044292E-2
3.252159272E0,2.654790878E-2,3.949642181E-2,-4.678440094E-2,6.673484074E-2
3.257159272E0,1.606625319E-2,3.609025478E-2,-3.565406799E-2,5.321506879E-2
3.262159272E0,1.141071320E-2,1.467269659E-2,-8.386611938E-3,2.039185280E-2
3.267159272E0,-9.018003941E-3,1.072263718E-2,4.775047302E-3,1.480204107E-2
3.272159272E0,-3.429353237E-3,-5.846798420E-3,2.660560608E-2,2.745548743E-2
3.277159272E0,-2.042418718E-2,-2.239960432E-2,4.836463928E-2,5.707913830E-2
3.282159272E0,-5.217105150E-2,-2.820688486E-2,4.392719269E-2,7.380410033E-2
3.287159272E0,-4.756939411E-2,-3.719073534E-2,3.943824768E-2,7.212054791E-2
3.292159272E0,-4.716503620E-2,-4.602426291E-2,1.874923706E-2,6.851501519E-2
3.297159272E0,-4.932302237E-2,-4.551070929E-2,5.198478699E-3,6.731277275E-2
3.302159272E0,-4.080730677E-2,-4.196757078E-2,-1.191043854E-2,5.973585045E-2
3.307159272E0,-5.190062523E-2,-3.081619740E-2,-2.265834808E-2,6.447258068E-2
3.312159272E0,-3.565973043E-2,-2.807879448E-2,-2.866744995E-2,5.368293733E-2
3.317159272E0,-3.715413809E-2,-1.761585474E-2,-2.801036835E-2,4.975267882E-2
3.322159272E0,-1.854360104E-2,-9.527623653E-3,-2.240562439E-2,3.060478322E-2
3.327159272E0,-1.827043295E-2,6.805717945E-3,-2.619552612E-2,3.265474094E-2
3.332159272E0,-1.848334074E-2,1.033568382E-2,-2.991485596E-2,3.665186014E-2
3.337159272E0,-1.660162210E-2,9.019255638E-3,-3.260421753E-2,3.768283203E-2
3.342159272E0,-1.355236769E-2,2.199047804E-2,1.384735107E-3,2.586822927E-2
3.347159272E0,-3.025829792E-3,2.448606491E-2,-1.663875580E-2,2.975854861E-2
3.352159272E0,-1.148641109E-2,3.177678585E-2,9.746551514E-4,3.380313168E-2
3.357159272E0,-9.808897972E-3,9.892404079E-3,3.068923950E-3,1.426507736E-2
3.362159272E0,-1.076376438E-2,9.861767292E-3,1.035976410E-2,1.790077624E-2
3.367159272E0,-1.446372271E-2,9.806036949E-3,1.023864746E-2,2.025308710E-2
3.372159272E0,-1.222199202E-2,3.668904305E-3,2.533531189E-2,2.836751621E-2
3.377159272E0,-2.122998238E-3,-7.194519043E-3,2.620315552E-2,2.725570738E-2
3.382159272E0,1.408934593E-3,3.935933113E-3,4.129028320E-2,4.150137532E-2
3.387159272E0,-2.421379089E-3,-1.325958967E-2,1.371955872E-2,1.923294274E-2
3.392159272E0,7.775664330E-3,-5.841612816E-3,1.279830933E-2,1.607426881E-2
3.397159272E0,1.662361622E-2,-8.440315723E-3,1.049709320E-2,2.139561898E-2
3.402159272E0,1.959520578E-2,-5.266427994E-3,-1.545524597E-2,2.550631258E-2
3.407159272E0,1.818263531E-2,-1.520198584E-2,-1.117706299E-2,2.620372754E-2
3.412159272E0,2.221876383E-2,-1.286941767E-2,2.929687500E-3,2.584334433E-2
3.417159272E0,2.233058214E-2,-2.637565136E-3,4.571914673E-3,2.294589402E-2
3.422159272E0,1.778036356E-2,3.463566303E-3,-1.066684723E-2,2.102187550E-2
3.427159272E0,2.802044153E-2,-5.469560623E-3,-1.822471619E-2,3.387036340E-2
3.432159272E0,3.236895800E-2,-5.199074745E-3,1.932811737E-2,3.805727186E-2
3.437159272E0,2.646732330E-2,1.255869865E-3,3.023529053E-2,4.020285071E-2
3.442159272E0,2.660125494E-2,9.353041649E-3,-3.882122040E-2,4.798117658E-2
3.447159272E0,4.212570190E-2,2.856671810E-3,-1.750078201E-1,1.800290878E-1
3.452159272E0,5.385303497E-2,-2.375459671E-2,-1.593837738E-1,1.699047309E-1
3.457159272E0,3.670293093E-2,-1.271247864E-2,-5.550956726E-2,6.774971815E-2
3.462159272E0,3.261160851E-2,-7.553935051E-3,1.142749786E-1,1.190770746E-1
3.467159272E0,-3.944277763E-3,-5.408287048E-3,2.278642654E-1,2.279625635E-1
3.472159272E0,-2.829825878E-2,7.537722588E-3,2.068128586E-1,2.088759612E-1
3.477159272E0,-4.160970449E-2,2.392721176E-2,1.108541489E-1,1.207995087E-1
3.482159272E0,-4.868614674E-2,1.973742247E-2,2.467536926E-2,5.804119725E-2
3.487159272E0,-4.885476828E-2,1.512962580E-2,-4.188346863E-2,6.610536215E-2
3.492159272E0,-3.840017319E-2,1.162809134E-2,-9.265708923E-2,1.009708968E-1
3.497159272E0,-3.037494421E-2,5.824327469E-3,-8.337211609E-2,8.892395497E-2
3.502159272E0,-2.932131290E-3,-2.549648285E-3,-6.922149658E-2,6.933046725E-2
3.507159272E0,1.521837711E-2,-6.008863449E-3,-2.544307709E-2,3.024988617E-2
3.512159272E0,1.284110546E-2,-1.657646894E-2,1.549434662E-2,2.607197901E-2
3.517159272E0,1.691424847E-2,-2.078372240E-2,1.250934601E-2,2.957259974E-2
3.522159272E0,1.274687052E-2,-5.204439163E-3,-1.249122620E-2,1.859031003E-2
3.527159272E0,1.549118757E-2,-1.047909260E-3,-3.404617310E-2,3.741947232E-2
3.532159272E0,9.705245495E-3,9.394347668E-3,-3.872203827E-2,4.101026464E-2
3.537159272E0,-4.522383213E-3,1.824003458E-2,-2.932834625E-2,3.483249496E-2
3.542159272E0,1.899951696E-2,2.150112391E-2,-3.907108307E-2,4.847504003E-2
3.547159272E0,1.090377569E-2,2.745699883E-2,-4.350280762E-2,5.258586673E-2
3.552159272E0,3.118216991E-3,2.112841606E-2,-6.664466858E-2,6.998317721E-2
3.557159272E0,3.884434700E-3,1.716452837E-2,-4.955196381E-2,5.258428457E-2
3.562159272E0,5.609273911E-3,2.093124390E-2,-3.392124176E-2,4.025210016E-2
3.567159272E0,5.013763905E-3,1.212382317E-2,4.816055298E-4,1.312847518E-2
3.572159272E0,-1.625299454E-2,2.716171741E-2,1.341819763E-3,3.168152781E-2
3.577159272E0,-1.172506809E-2,1.791185141E-2,5.213737488E-3,2.203394429E-2
3.582159272E0,-1.348173618E-2,1.721733809E-2,3.004074097E-3,2.207302432E-2
3.587159272E0,-1.571351290E-2,1.462227106E-2,-2.399444580E-3,2.159820902E-2
3.592159272E0,-1.199948788E-2,3.824710846E-3,-7.742881775E-3,1.478405697E-2
3.597159272E0,-1.484292746E-2,6.604552269E-3,-5.683898926E-4,1.625594270E-2
3.602159272E0,-5.754351616E-3,-1.162445545E-2,-4.348754883E-3,1.368035804E-2
3.607159272E0,-8.567571640E-3,1.164674759E-3,-1.935386658E-2,2.119745038E-2
3.612159272E0,-2.038937807E-2,-2.077639103E-3,9.660720825E-4,2.051771473E-2
3.617159272E0,-1.426136494E-2,-5.339384079E-3,5.086898804E-3,1.605528236E-2
3.622159272E0,-1.956945658E-2,-1.656937599E-2,2.408027649E-3,2.575473643E-2
3.627159272E0,-1.587891579E-2,-1.221489906E-2,6.332397461E-3,2.101054457E-2
3.632159272E0,-1.798468828E-2,-9.658694267E-3,1.447010040E-2,2.502245378E-2
3.637159272E0,-1.326739788E-2,-2.390480042E-2,3.841590881E-2,4.715130305E-2
3.642159272E0,-7.601201534E-3,-3.193712234E-2,3.835296631E-2,5.048473109E-2
3.647159272E0,-1.041483879E-2,-2.310425043E-2,7.255268097E-2,7.685158925E-2
3.652159272E0,-1.994699240E-2,-3.557634354E-2,7.541656494E-2,8.573923835E-2
3.657159272E0,-1.398813725E-2,-3.321170807E-2,7.475948334E-2,8.299196278E-2
3.662159272E0,-2.648711205E-3,-1.907265186E-2,5.164623260E-2,5.511909889E-2
3.667159272E0,-6.970524788E-3,-1.434677839E-2,1.724338531E-2,2.348941471E-2
3.672159272E0,-8.403718472E-3,-9.789586067E-3,-1.080322266E-2,1.682759933E-2
3.677159272E0,-6.741464138E-3,-1.208263636E-2,1.402091980E-2,1.969831546E-2
3.682159272E0,5.416393280E-3,4.096686840E-3,-1.196575165E-2,1.375861082E-2
3.687159272E0,5.459964275E-3,-1.407527924E-2,-6.634712219E-3,1.649072775E-2
3.692159272E0,1.411128044E-2,-1.140451431E-2,2.367019653E-3,1.829737589E-2
3.697159272E0,1.669985056E-2,-8.734941483E-3,1.457118988E-2,2.382233796E-2
3.702159272E0,2.078139782E-2,-8.403182030E-3,1.738071442E-2,2.836492900E-2
3.707159272E0,1.323318481E-2,-1.244431734E-2,3.017425537E-3,1.841420841E-2
3.712159272E0,2.160149813E-2,-7.577836514E-3,1.163387299E-2,2.567869405E-2
3.717159272E0,1.391118765E-2,-8.089244366E-3,1.973152161E-2,2.546153886E-2
3.722159272E0,1.803022623E-2,-9.829342365E-3,2.502250671E-2,3.237021581E-2
3.727159272E0,9.292721748E-3,-8.539199829E-3,5.931854248E-3,1.394487383E-2
3.732159272E0,-3.415942192E-4,-1.638358831E-2,1.167106628E-2,2.011846020E-2
3.737159272E0,7.202446461E-3,-5.182087421E-3,1.873683929E-2,2.073158006E-2
3.742159272E0,9.956896305E-3,8.377015591E-3,-1.847553253E-2,2.259777592E-2
3.747159272E0,4.569888115E-4,9.097754955E-3,-1.314735413E-2,1.599471489E-2
3.752159272E0,-7.530987263E-3,-4.913389683E-3,-3.911018372E-3,9.805775443E-3
3.757159272E0,-3.152847290E-3,1.082801819E-2,-8.339881897E-3,1.402640560E-2
3.762159272E0,-6.978869438E-3,3.400564194E-3,-1.817226410E-2,1.976106368E-2
3.767159272E0,4.915893078E-3,-1.971006393E-3,-1.808261871E-2,1.884229207E-2
3.772159272E0,3.350317478E-3,-5.455017090E-4,-1.456165314E-2,1.495205476E-2
3.777159272E0,2.526223660E-3,-9.843051434E-3,-1.318931580E-2,1.665009065E-2
3.782159272E0,3.709316254E-3,-1.611340046E-2,5.798339844E-3,1.752202746E-2
3.787159272E0,1.029425859E-2,-6.794810295E-3,-1.534652710E-2,1.968900965E-2
3.792159272E0,-7.125079632E-3,-9.069204330E-3,-4.253387451E-3,1.229262103E-2
3.797159272E0,-1.622080803E-3,-5.116641521E-3,-1.799297333E-2,1.877653471E-2
3.802159272E0,-9.497404099E-4,3.313183784E-3,-2.114295959E-3,4.043444205E-3
3.807159272E0,-7.866203785E-3,6.806373596E-3,5.636215210E-4,1.041736784E-2
3.812159272E0,-7.575631142E-3,1.369541883E-2,7.976531982E-3,1.756643808E-2
3.817159272E0,-1.429736614E-3,6.443619728E-3,-1.746273041E-2,1.866845830E-2
3.822159272E0,-8.023440838E-3,1.982456446E-2,-8.732795715E-3,2.310088050E-2
3.827159272E0,6.096422672E-3,1.402479410E-2,-6.390571594E-3,1.657409498E-2
3.832159272E0,-3.963351250E-3,2.336901426E-2,2.540588379E-3,2.383848926E-2
3.837159272E0,-5.761861801E-3,2.403575182E-2,2.847671509E-3,2.488022608E-2
3.842159272E0,-7.390558720E-3,2.196562290E-2,-8.957862854E-3,2.484657430E-2
3.847159272E0,-6.648361683E-3,2.590692043E-2,-2.313613892E-3,2.684626694E-2
3.852159272E0,-5.837559700E-3,9.081900120E-3,4.329681396E-4,1.080488197E-2
3.857159272E0,-4.615008831E-3,7.872343063E-3,1.495647430E-2,1.752050842E-2
3.862159272E0,-2.739965916E-3,1.681387424E-3,1.705741882E-2,1.735770762E-2
3.867159272E0,-1.321768761E-2,-3.876686096E-4,7.732391357E-3,1.531820579E-2
3.872159272E0,-1.484125853E-2,-3.325939178E-4,2.194404602E-3,1.500629817E-2
3.877159272E0,-1.053637266E-2,-9.591341019E-3,2.721786499E-3,1.450576069E-2
3.882159272E0,-6.302297115E-3,-5.639970303E-3,4.369735718E-3,9.519601052E-3
3.887159272E0,-1.850438118E-2,6.908178329E-5,1.290702820E-2,2.256121167E-2
3.892159272E0,-3.423690796E-4,4.776656628E-3,4.135227203E-2,4.162864480E-2
3.897159272E0,-6.931304932E-3,-8.595585823E-3,2.830886841E-2,3.038616649E-2
3.902159272E0,-1.635366678E-2,-6.774365902E-3,3.652000427E-2,4.058380419E-2
3.907159272E0,-1.035207510E-2,1.092493534E-3,3.471374512E-2,3.624090370E-2
3.912159272E0,1.169919968E-3,6.291270256E-4,1.596355438E-2,1.601872598E-2
3.917159272E0,-3.447532654E-3,-6.351709366E-3,-2.071380615E-3,7.517999130E-3
3.922159272E0,-2.592623234E-3,1.096844673E-3,1.366615295E-3,3.129281201E-3
3.927159272E0,-2.041399479E-3,1.149868965E-2,-6.953239441E-3,1.359171491E-2
3.932159272E0,-1.258748770E-2,-1.091808081E-2,-1.539230347E-3,1.673375526E-2
3.937159272E0,2.565383911E-3,-6.631076336E-3,2.419471741E-3,7.510406879E-3
3.942159272E0,-2.467811108E-3,-4.312038422E-3,-5.904197693E-3,7.716431650E-3
3.947159272E0,-2.035915852E-3,-1.228529215E-2,-8.460044861E-3,1.505475724E-2
3.952159272E0,3.866910934E-3,-6.559133530E-3,-5.749702454E-3,9.541190237E-3
3.957159272E0,5.295634270E-3,-8.854806423E-3,-2.324581146E-2,2.543263828E-2
3.962159272E0,9.185075760E-4,-1.000881195E-2,-1.654243469E-2,1.935644901E-2
3.967159272E0,5.294978619E-3,-8.965134621E-4,-6.843566895E-3,8.699134601E-3
3.972159272E0,1.490354538E-3,-2.385914326E-3,-9.351730347E-3,9.765685040E-3
3.977159272E0,7.620334625E-3,4.681587219E-3,-1.243114471E-2,1.531404968E-2
3.982159272E0,1.133751869E-2,4.684269428E-3,-4.136085510E-3,1.294561368E-2
3.987159272E0,1.372241974E-2,4.722356796E-3,1.270294189E-3,1.456774192E-2
3.992159272E0,5.323648453E-3,-1.086413860E-2,-1.153945923E-3,1.215328481E-2
3.997159272E0,-1.328587532E-3,-4.840493202E-4,-6.587028503E-3,6.737090847E-3
4.002159272E0,8.000314236E-3,-9.219944477E-3,-1.580619812E-2,1.997118682E-2
4.007159272E0,4.113554955E-3,-7.915496826E-3,-6.954193115E-3,1.131093392E-2
4.012159272E0,4.606544971E-3,-5.567669868E-4,2.224922180E-3,5.145923120E-3
4.017159272E0,-2.060830593E-3,5.551278591E-3,2.980232239E-3,6.629140286E-3
4.022159272E0,3.938674927E-3,-4.834532738E-4,1.832675934E-2,1.875145315E-2
4.027159272E0,-7.617115974E-3,-3.643751144E-3,2.517318726E-2,2.655158630E-2
4.032159272E0,-1.643425226E-2,-1.218044758E-2,3.030776978E-2,3.656513174E-2
4.037159272E0,6.292581558E-3,-1.222640276E-2,1.989078522E-2,2.418108442E-2
4.042159272E0,-8.148252964E-3,-5.512893200E-3,5.350112915E-4,9.852525305E-3
4.047159272E0,2.835988998E-4,6.318688393E-4,-1.722240448E-2,1.723632509E-2
4.052159272E0,-5.516648293E-3,-1.145666838E-2,-1.237487793E-2,1.774334417E-2
4.057159272E0,-1.381295919E-2,-6.235957146E-3,-2.313232422E-2,2.765482647E-2
4.062159272E0,-1.503074169E-2,-6.682872772E-4,-4.938125610E-3,1.583524197E-2
4.067159272E0,-9.110569954E-3,6.858289242E-3,-6.632804871E-3,1.319214602E-2
4.072159272E0,1.547932625E-3,-1.483213902E-2,-2.481460571E-3,1.511774089E-2
4.077159272E0,8.181810379E-3,9.451925755E-3,8.077621460E-4,1.252730622E-2
4.082159272E0,1.639002562E-2,-1.730620861E-3,-2.215194702E-2,2.761044630E-2
4.087159272E0,1.244217157E-2,3.863930702E-3,-7.950782776E-3,1.526278286E-2
4.092159272E0,-3.529071808E-3,-3.941953182E-3,8.473396301E-3,9.989583955E-3
4.097159272E0,-3.713965416E-3,4.795491695E-3,1.263141632E-2,1.401224315E-2
4.102159272E0,3.562033176E-3,4.851222038E-3,1.116847992E-2,1.268689794E-2
4.107159272E0,-9.563982487E-3,-2.608895302E-4,-2.721309662E-2,2.884597809E-2
4.112159272E0,4.264712334E-4,-7.327198982E-4,-6.612586975E-2,6.613130429E-2
4.117159272E0,3.819167614E-3,-7.341563702E-3,-6.835842133E-2,6.885752221E-2
4.122159272E0,1.147615910E-2,-1.386719942E-2,-3.222370148E-2,3.691027478E-2
4.127159272E0,7.096290588E-3,-1.868414879E-2,1.671886444E-2,2.605715227E-2
4.132159272E0,-2.683579922E-3,-1.540702581E-2,6.754398346E-2,6.933085711E-2
4.137159272E0,-4.546880722E-3,-1.952570677E-2,9.046936035E-2,9.266408426E-2
4.142159272E0,9.934902191E-4,-1.054322720E-2,1.096286774E-1,1.101389739E-1
4.147159272E0,1.896446943E-2,1.292824745E-3,1.656942368E-1,1.667810019E-1
4.152159272E0,-4.936695099E-3,7.316946983E-3,2.546844482E-1,2.548373537E-1
4.157159272E0,-4.292380810E-2,1.846241951E-2,3.070659637E-1,3.106007410E-1
4.162159272E0,-7.227021456E-2,2.688640356E-2,2.484893799E-1,2.601784667E-1
4.167159272E0,-8.541220427E-2,2.779495716E-2,7.250976562E-2,1.154360013E-1
4.172159272E0,-7.473617792E-2,2.398914099E-2,-1.863269806E-1,2.021848631E-1
4.177159272E0,-3.211063147E-2,3.142488003E-2,-3.973493576E-1,3.998813921E-1
4.182159272E0,-2.802771330E-2,1.178699732E-2,-4.339418411E-1,4.350057557E-1
4.187159272E0,2.535581589E-4,-7.171630859E-4,-2.522449493E-1,2.522460963E-1
4.192159272E0,-5.066752434E-3,-1.439446211E-2,-2.755737305E-2,3.150049728E-2
4.197159272E0,1.003295183E-2,-2.551907301E-2,9.167194366E-2,9.568504828E-2
4.202159272E0,3.349214792E-2,-3.964459896E-2,8.877277374E-2,1.028300713E-1
4.207159272E0,5.081355572E-2,-5.856293440E-2,4.295063019E-2,8.863628695E-2
4.212159272E0,5.809253454E-2,-4.575181007E-2,5.055713654E-2,8.957675340E-2
4.217159272E0,2.980816364E-2,-4.226726294E-2,9.997749329E-2,1.125635256E-1
4.222159272E0,1.553642750E-2,-2.651154995E-3,1.208467484E-1,1.218702006E-1
4.227159272E0,-2.644544840E-2,2.355736494E-2,1.653137207E-1,1.690648912E-1
4.232159272E0,-3.087764978E-2,5.000555515E-2,1.772155762E-1,1.867065752E-1
4.237159272E0,-4.208940268E-2,7.501506805E-2,1.483783722E-1,1.715077829E-1
4.242159272E0,-5.002254248E-2,7.006776333E-2,1.183052063E-1,1.463142784E-1
4.247159272E0,-5.191415548E-2,4.737204313E-2,3.985786438E-2,8.079504541E-2
4.252159272E0,-3.782874346E-2,2.623772621E-2,-6.668949127E-2,8.103653716E-2
4.257159272E0,-1.153433323E-2,2.354562283E-3,-1.595401764E-1,1.599739125E-1
4.262159272E0,1.787054539E-2,-1.179921627E-2,-2.156152725E-1,2.166760800E-1
4.267159272E0,5.547815561E-2,-2.333444357E-2,-2.104272842E-1,2.188651730E-1
4.272159272E0,8.212202787E-2,-1.724863052E-2,-1.572809219E-1,1.782661805E-1
4.277159272E0,9.504240751E-2,-3.032696247E-2,-9.663009644E-2,1.388890183E-1
4.282159272E0,1.019718051E-1,-1.893478632E-2,-2.023696899E-2,1.056707627E-1
4.287159272E0,9.817141294E-2,3.130018711E-3,1.840114594E-2,9.993010311E-2
4.292159272E0,7.691818476E-2,1.505720615E-2,1.765251160E-2,8.034138267E-2
4.297159272E0,5.061799288E-2,2.780979872E-2,1.583671570E-2,5.988628951E-2
4.302159272E0,1.968318224E-2,3.009265661E-2,1.081562042E-2,3.754961105E-2
4.307159272E0,4.517078400E-3,2.535849810E-2,-1.400566101E-2,2.931920810E-2
4.312159272E0,-3.228724003E-3,1.265555620E-2,-3.346633911E-2,3.592469367E-2
4.317159272E0,-6.460249424E-3,2.154773474E-2,-2.351951599E-2,3.254546554E-2
4.322159272E0,-1.597720385E-2,1.025831699E-2,-1.090526581E-2,2.189586565E-2
4.327159272E0,-2.162796259E-2,3.957450390E-3,-5.262374878E-3,2.260802443E-2
4.332159272E0,-3.328353167E-2,-6.907999516E-3,2.468109131E-3,3.408233414E-2
4.337159272E0,-4.208815098E-2,-1.404720545E-2,1.505851746E-2,4.685611360E-2
4.342159272E0,-4.145675898E-2,-1.627737284E-2,1.050186157E-2,4.575920484E-2
4.347159272E0,-4.995107651E-2,-2.451378107E-2,6.684303284E-3,5.604208612E-2
4.352159272E0,-5.312430859E-2,-3.497141600E-2,8.268356323E-3,6.413702375E-2
4.357159272E0,-3.992164135E-2,-3.642213345E-2,3.787040710E-3,5.417241854E-2
4.362159272E0,-4.382151365E-2,-4.030597210E-2,-2.499580383E-2,6.457311093E-2
4.367159272E0,-4.075962305E-2,-3.333133459E-2,-2.575969696E-2,5.861643732E-2
4.372159272E0,-3.820294142E-2,-2.871811390E-2,-3.091335297E-2,5.691950624E-2
4.377159272E0,-2.384132147E-2,-2.296978235E-2,-3.370666504E-2,4.724572762E-2
4.382159272E0,-2.159351110E-2,-1.660043001E-2,-3.934478760E-2,4.785254758E-2
4.387159272E0,-2.888756990E-2,-1.641482115E-2,-3.527832031E-2,4.846130345E-2
4.392159272E0,-9.746491909E-3,-2.392530441E-3,-6.987571716E-3,1.222883743E-2
4.397159272E0,-1.728445292E-2,-4.840195179E-3,5.928993225E-3,1.890324741E-2
4.402159272E0,-2.011203766E-2,1.868474483E-2,1.953411102E-2,3.369265857E-2
4.407159272E0,-1.368832588E-2,2.231991291E-2,2.544307709E-2,3.650888864E-2
4.412159272E0,-1.903104782E-2,1.769500971E-2,2.512168884E-2,3.614406452E-2
4.417159272E0,-1.871037483E-2,2.084964514E-2,1.232147217E-2,3.060399492E-2
4.422159272E0,-9.867250919E-3,8.945345879E-3,3.685951233E-3,1.381912045E-2
4.427159272E0,-7.086753845E-3,1.066613197E-2,-1.096725464E-4,1.280626719E-2
4.432159272E0,-2.395331860E-3,6.698846817E-3,1.506805420E-4,7.115818155E-3
4.437159272E0,-2.577304840E-3,-1.547098160E-3,1.893997192E-2,1.917703182E-2
4.442159272E0,1.442611217E-3,6.298005581E-3,2.155780792E-2,2.250522348E-2
4.447159272E0,9.342372417E-3,1.957774162E-3,2.409839630E-2,2.591998276E-2
4.452159272E0,1.426893473E-2,-1.004695892E-3,2.119827271E-2,2.557300682E-2
4.457159272E0,2.327340841E-2,4.309773445E-3,2.311706543E-2,3.308510844E-2
4.462159272E0,1.218247414E-2,5.593717098E-3,2.695560455E-2,3.010493255E-2
4.467159272E0,9.347915649E-3,-8.397519588E-3,2.284812927E-2,2.607563755E-2
4.472159272E0,3.200399876E-2,4.545927048E-3,-4.561424255E-3,3.264548943E-2
4.477159272E0,2.341610193E-2,-3.781557083E-3,-3.814411163E-2,4.491756066E-2
4.482159272E0,2.171128988E-2,-3.723978996E-3,-7.184886932E-2,7.514990453E-2
4.487159272E0,3.840887547E-2,-3.846704960E-3,-9.571075439E-2,1.032016829E-1
4.492159272E0,3.758889437E-2,-4.175245762E-3,-5.249404907E-2,6.469917190E-2
4.497159272E0,4.073578119E-2,-9.072422981E-4,3.498077393E-3,4.089576388E-2
4.502159272E0,2.385312319E-2,1.280570030E-2,-3.458595276E-2,4.392203973E-2
4.507159272E0,9.607613087E-3,5.936264992E-3,-8.612251282E-2,8.685984507E-2
4.512159272E0,2.322489023E-2,-1.709246635E-2,-8.956241608E-2,9.409024554E-2
4.517159272E0,2.018183470E-2,-1.890927553E-2,2.201461792E-2,3.534841658E-2
4.522159272E0,-5.355536938E-3,-1.073646545E-2,1.742305756E-1,1.746431989E-1
4.527159272E0,-3.338229656E-2,-2.538323402E-3,2.519655228E-1,2.541799470E-1
4.532159272E0,-4.478079081E-2,1.086497307E-2,2.153129578E-1,2.201886388E-1
4.537159272E0,-4.116618633E-2,1.447641850E-2,1.355085373E-1,1.423614599E-1
4.542159272E0,-3.617978096E-2,1.999509335E-2,6.895065308E-2,8.039261700E-2
4.547159272E0,-3.765553236E-2,2.114921808E-2,1.618099213E-2,4.611998535E-2
4.552159272E0,-2.451002598E-2,1.629710197E-3,-2.243041992E-2,3.326441141E-2
4.557159272E0,-1.440352201E-2,-4.968464375E-3,-3.802680969E-2,4.096566050E-2
4.562159272E0,-1.261419058E-2,-2.238088846E-2,-3.484153748E-2,4.328919849E-2
4.567159272E0,-1.279610395E-2,-2.764391899E-2,-3.629970551E-2,4.738771100E-2
4.572159272E0,-1.625806093E-2,-2.921980619E-2,-4.559898376E-2,5.654545905E-2
4.577159272E0,-2.152019739E-2,-1.507085562E-2,-8.821296692E-2,9.204225724E-2
4.582159272E0,-1.071166992E-2,-5.884110928E-3,-5.963611603E-2,6.087552028E-2
4.587159272E0,-4.027068615E-3,-1.639902592E-3,-2.088832855E-2,2.133609223E-2
4.592159272E0,-6.897270679E-3,1.437777281E-2,1.639556885E-2,2.287154065E-2
4.597159272E0,-3.728270531E-3,2.467334270E-2,2.429294586E-2,3.482558054E-2
4.602159272E0,-1.677632332E-3,2.607047558E-2,2.090454102E-3,2.620790235E-2
4.607159272E0,2.314209938E-3,3.345960379E-2,-2.751445770E-2,4.338140196E-2
4.612159272E0,1.689583063E-2,2.900713682E-2,-5.895233154E-2,6.783996222E-2
4.617159272E0,6.905257702E-3,3.543901443E-2,-6.785678864E-2,7.686449175E-2
4.622159272E0,1.038479805E-2,2.187770605E-2,-5.140686035E-2,5.682555186E-2
4.627159272E0,1.410067081E-2,2.858781815E-2,-3.742218018E-3,3.209511582E-2
4.632159272E0,4.868030548E-3,2.796936035E-2,4.760742188E-3,2.878623814E-2
4.637159272E0,-9.293019772E-3,1.183235645E-2,2.130413055E-2,2.608123568E-2
4.642159272E0,-1.205903292E-2,-3.858447075E-3,1.279926300E-2,1.800358359E-2
4.647159272E0,-2.148485184E-2,-1.613843441E-2,1.883316040E-2,3.281365347E-2
4.652159272E0,-2.278786898E-2,-3.617823124E-3,-1.463127136E-2,2.732123201E-2
4.657159272E0,-2.266091108E-2,-1.254916191E-2,-2.679634094E-2,3.726985704E-2
4.662159272E0,-1.817208529E-2,-1.845359802E-2,-5.695724487E-2,6.256906350E-2
4.667159272E0,-1.630574465E-2,-2.268046141E-2,-7.006454468E-2,7.542758818E-2
4.672159272E0,-1.721179485E-2,-1.235002279E-2,-5.815124512E-2,6.188971040E-2
4.677159272E0,-2.168953419E-2,-1.357346773E-2,-3.432273865E-2,4.281034113E-2
4.682159272E0,-1.420158148E-2,-2.411717176E-2,-2.567481995E-2,3.798051171E-2
4.687159272E0,-9.458124638E-3,-2.497643232E-2,1.474475861E-2,3.050714998E-2
4.692159272E0,-9.951174259E-3,-2.122497559E-2,3.968238831E-2,4.608923301E-2
4.697159272E0,3.113329411E-3,-1.679468155E-2,6.238746643E-2,6.468346092E-2
4.702159272E0,-4.754364491E-3,-8.232116699E-3,7.166576385E-2,7.229352278E-2
4.707159272E0,-3.525197506E-3,-2.859413624E-3,5.611419678E-2,5.629748079E-2
4.712159272E0,-1.090067625E-2,-1.099205017E-2,4.664516449E-2,4.914693561E-2
4.717159272E0,-1.431214809E-2,-1.784265041E-3,5.277633667E-2,5.471163402E-2
4.722159272E0,-1.463091373E-2,-1.206755638E-3,3.836250305E-2,4.107555887E-2
4.727159272E0,-1.496767998E-2,-6.199181080E-3,2.367973328E-2,2.869130631E-2
4.732159272E0,-1.076531410E-2,-6.560206413E-3,2.278041840E-2,2.603604728E-2
4.737159272E0,6.212592125E-4,-4.652380943E-3,1.587772369E-2,1.655695386E-2
4.742159272E0,-3.926753998E-4,3.367424011E-3,3.393173218E-3,4.796599100E-3
4.747159272E0,1.821196079E-2,-1.071333885E-2,5.321502686E-3,2.178920687E-2
4.752159272E0,1.671785116E-2,-1.282054186E-2,1.153945923E-3,2.109939412E-2
4.757159272E0,2.453368902E-2,-7.670223713E-3,-8.881568909E-3,2.719589114E-2
4.762159272E0,2.020758390E-2,-1.165765524E-2,-4.339218140E-3,2.372922643E-2
4.767159272E0,2.100336552E-2,-1.186770201E-2,1.556587219E-2,2.871027849E-2
4.772159272E0,7.715761662E-3,-1.987296343E-2,1.158618927E-2,2.426329399E-2
4.777159272E0,2.102553844E-3,-6.299376488E-3,2.772521973E-2,2.850948414E-2
4.782159272E0,7.274687290E-3,1.184934378E-2,1.340103149E-2,1.931102453E-2
4.787159272E0,4.226803780E-3,3.710091114E-3,1.312160492E-2,1.427610458E-2
4.792159272E0,-1.081705093E-2,1.092183590E-2,1.446342468E-2,2.110653320E-2
4.797159272E0,-7.096946239E-3,-2.659022808E-3,1.277923584E-4,7.579800730E-3
4.802159272E0,-9.013593197E-3,3.119707108E-4,-2.363204956E-3,9.323461037E-3
4.807159272E0,-2.452135086E-4,-3.092348576E-3,-9.320259094E-3,9.822931282E-3
4.812159272E0,-5.304217339E-3,-4.076361656E-4,-1.180744171E-2,1.295054318E-2
4.817159272E0,-5.551457405E-3,-4.595279694E-3,-4.198074341E-3,8.340210007E-3
4.822159272E0,5.150735378E-3,-3.570556641E-3,4.277229309E-3,7.587729583E-3
4.827159272E0,2.189099789E-3,-2.077239752E-2,9.645462036E-3,2.300694666E-2
4.832159272E0,1.515752077E-2,-1.186525822E-2,-4.011154175E-3,1.966276039E-2
4.837159272E0,8.574247360E-3,-8.290588856E-3,-1.913070679E-3,1.207937998E-2
4.842159272E0,1.037275791E-2,1.089513302E-3,-1.448249817E-2,1.784723786E-2
4.847159272E0,1.261591911E-3,7.297992706E-4,-2.330684662E-2,2.335237291E-2
4.852159272E0,1.057565212E-3,2.607703209E-4,-2.312660217E-2,2.315223906E-2
4.857159272E0,1.062154770E-3,-4.879832268E-3,-7.995605469E-3,9.427122707E-3
4.862159272E0,1.133263111E-3,-1.186966896E-3,-3.938674927E-3,4.266888312E-3
4.867159272E0,-3.594875336E-3,-5.712509155E-4,-4.240989685E-3,5.588868382E-3
4.872159272E0,-3.492772579E-3,-3.305077553E-4,-7.699966431E-3,8.461570699E-3
4.877159272E0,-1.696050167E-3,4.749417305E-3,-7.136344910E-3,8.738476388E-3
4.882159272E0,-6.616115570E-4,1.195096970E-2,-1.562881470E-2,1.968561036E-2
4.887159272E0,-1.188093424E-2,1.247209311E-2,-6.217956543E-3,1.831318346E-2
4.892159272E0,8.713006973E-4,1.436972618E-2,4.630088806E-3,1.512236482E-2
4.897159272E0,-1.039332151E-2,1.625359058E-3,1.470565796E-3,1.062193428E-2
4.902159272E0,6.380081177E-3,1.453423500E-2,7.877349854E-4,1.589244944E-2
4.907159272E0,-1.927077770E-3,1.296663284E-2,-2.997398376E-3,1.344736380E-2
4.912159272E0,4.999816418E-3,5.186140537E-3,9.307861328E-4,7.263647893E-3
4.917159272E0,5.117297173E-3,-1.097500324E-3,-9.794235229E-3,1.110487645E-2
4.922159272E0,-5.428135395E-3,-3.599524498E-4,-5.986213684E-3,8.088817831E-3
4.927159272E0,-7.299125195E-3,-1.169043779E-2,1.265525818E-2,1.871093595E-2
4.932159272E0,-7.098495960E-3,-1.576840878E-3,6.896972656E-3,1.002214068E-2
4.937159272E0,-2.222299576E-3,9.750723839E-4,1.495742798E-2,1.515302060E-2
4.942159272E0,-1.162493229E-2,-3.049314022E-3,-4.058837891E-3,1.268509092E-2
4.947159272E0,-1.144921780E-2,-3.007650375E-4,-1.430511475E-5,1.145317652E-2
4.952159272E0,-1.520597935E-2,-3.738343716E-3,4.213333130E-3,1.621570836E-2
4.957159272E0,-1.252222061E-2,1.566886902E-3,1.231193542E-3,1.267978632E-2
4.962159272E0,-1.263046265E-2,-9.163022041E-4,2.087593079E-3,1.283457211E-2
4.967159272E0,-1.934170723E-2,1.574754715E-4,-1.920509338E-2,2.725733019E-2
4.972159272E0,-1.069235802E-2,1.477801800E-2,-4.426002502E-3,1.876981177E-2
4.977159272E0,-8.799910545E-3,-2.375662327E-3,-8.111000061E-3,1.220125072E-2
4.982159272E0,2.187490463E-4,6.656169891E-3,-8.606910706E-3,1.088261736E-2
4.987159272E0,-1.059871912E-2,7.006287575E-3,-1.901531219E-2,2.286925907E-2
4.992159272E0,-5.496203899E-3,2.172189951E-2,-1.306247711E-2,2.593602676E-2
4.997159272E0,-7.233858109E-3,1.287794113E-2,-3.446578979E-3,1.516736555E-2
5.002159272E0,-1.401609182E-2,1.755952835E-3,8.976936340E-3,1.673677348E-2
5.007159272E0,-5.833089352E-3,8.714258671E-3,1.523780823E-2,1.849740617E-2
5.012159272E0,3.056526184E-3,3.087997437E-3,2.210521698E-2,2.252817565E-2
5.017159272E0,-7.957100868E-3,-1.119488478E-2,4.264259338E-2,4.479990703E-2
5.022159272E0,-4.022717476E-3,-1.662409306E-2,3.177356720E-2,3.608465461E-2
5.027159272E0,-3.157436848E-3,-2.438753843E-2,1.465702057E-2,2.862777830E-2
5.032159272E0,3.786385059E-3,-2.304118872E-2,9.805679321E-3,2.532556882E-2
5.037159272E0,-1.984238625E-4,-1.950067282E-2,-4.975318909E-3,2.012633624E-2
5.042159272E0,-5.868613720E-3,-1.515001059E-2,-1.349639893E-2,2.112146377E-2
5.047159272E0,-6.162822247E-3,-1.901197433E-2,-1.850795746E-2,2.723931048E-2
5.052159272E0,-1.735091209E-3,-7.267773151E-3,-1.651668549E-2,1.812820916E-2
5.057159272E0,2.701640129E-3,2.616524696E-3,-1.337146759E-2,1.389032780E-2
5.062159272E0,5.232036114E-3,3.672778606E-3,-1.386547089E-2,1.526809705E-2
5.067159272E0,8.871555328E-3,8.522927761E-3,-7.448196411E-4,1.232475346E-2
5.072159272E0,1.609188318E-2,4.762411118E-3,1.152038574E-3,1.682130961E-2
5.077159272E0,1.579838991E-2,3.597199917E-3,1.146316528E-3,1.624324514E-2
5.082159272E0,2.453637123E-2,-1.537758112E-2,-2.952575684E-3,2.910706473E-2
5.087159272E0,6.407976151E-3,-1.363360882E-2,1.725101471E-2,2.290272814E-2
5.092159272E0,1.148909330E-2,-6.897985935E-3,-3.122425079E-2,3.397845365E-2
5.097159272E0,1.234501600E-2,-8.002221584E-3,-5.504894257E-2,5.698088318E-2
5.102159272E0,1.496160030E-2,-5.277931690E-3,-5.991363525E-2,6.197862322E-2
5.107159272E0,1.197797060E-2,-8.560538292E-3,-3.904342651E-2,4.172701462E-2
5.112159272E0,9.381711483E-3,-1.785606146E-2,-2.268791199E-3,2.029785345E-2
5.117159272E0,9.674370289E-3,-4.722714424E-3,4.965400696E-2,5.080765571E-2
5.122159272E0,1.337647438E-2,-2.534109354E-2,6.812381744E-2,7.390504443E-2
5.127159272E0,5.189716816E-3,-6.638050079E-3,1.091375351E-1,1.094623151E-1
5.132159272E0,3.453254700E-3,-1.995563507E-3,1.834449768E-1,1.834883287E-1
5.137159272E0,-6.589651108E-3,-3.721714020E-4,2.770338058E-1,2.771124169E-1
5.142159272E0,-2.525877953E-2,-1.790523529E-3,2.851114273E-1,2.862337120E-1
5.147159272E0,-6.208491325E-2,1.788526773E-2,1.641454697E-1,1.764033856E-1
5.152159272E0,-9.225302935E-2,2.764421701E-2,-5.247306824E-2,1.096733653E-1
5.157159272E0,-7.742726803E-2,3.470599651E-2,-2.735958099E-1,2.864509648E-1
5.162159272E0,-4.326230288E-2,4.795533419E-2,-4.056959152E-1,4.108047183E-1
5.167159272E0,-3.058552742E-3,2.716839314E-2,-3.717002869E-1,3.727044132E-1
5.172159272E0,2.091109753E-2,1.428127289E-3,-1.863746643E-1,1.875495376E-1
5.177159272E0,2.691715956E-2,-2.133333683E-2,4.895210266E-2,5.979927336E-2
5.182159272E0,3.244745731E-2,-3.633946180E-2,1.464033127E-1,1.542962214E-1
5.187159272E0,2.013254166E-2,-4.793840647E-2,1.364603043E-1,1.460302184E-1
5.192159272E0,2.306103706E-2,-6.853318214E-2,3.861427307E-2,8.197359679E-2
5.197159272E0,2.185821533E-2,-6.938886642E-2,4.051589966E-2,8.327145061E-2
5.202159272E0,-6.980001926E-3,-4.151940346E-2,9.969806671E-2,1.082233145E-1
5.207159272E0,-4.160523415E-2,-7.961452007E-3,1.514492035E-1,1.572616974E-1
5.212159272E0,-6.477147341E-2,2.196949720E-2,1.727533340E-1,1.858002072E-1
5.217159272E0,-7.255494595E-2,5.910491943E-2,1.551074982E-1,1.811517256E-1
5.222159272E0,-7.866781950E-2,6.605356932E-2,1.183691025E-1,1.567256975E-1
5.227159272E0,-7.523393631E-2,7.417088747E-2,5.653572083E-2,1.198238434E-1
5.232159272E0,-7.282257080E-2,5.740851164E-2,2.946376801E-2,9.729839491E-2
5.237159272E0,-4.471975565E-2,3.502774239E-2,-3.226375580E-2,6.532801252E-2
5.242159272E0,-3.706872463E-3,1.255077124E-2,-1.043272018E-1,1.051447945E-1
5.247159272E0,2.470076084E-2,-1.158833504E-3,-1.402797699E-1,1.424425650E-1
5.252159272E0,5.409872532E-2,-2.434808016E-2,-1.552886963E-1,1.662350152E-1
5.257159272E0,9.357005358E-2,-1.655077934E-2,-1.205320358E-1,1.534837284E-1
5.262159272E0,1.163750291E-1,-1.931262016E-2,-8.043384552E-2,1.427785985E-1
5.267159272E0,1.031280160E-1,-2.168393135E-2,-3.653717041E-2,1.115371928E-1
5.272159272E0,8.745354414E-2,-9.266912937E-3,-1.195907593E-3,8.795128341E-2
5.277159272E0,8.007061481E-2,-2.901673317E-3,3.531455994E-3,8.020096163E-2
5.282159272E0,4.981690645E-2,1.628577709E-2,-1.264858246E-2,5.391602120E-2
5.287159272E0,2.388650179E-2,2.130252123E-2,-1.624393463E-2,3.589189032E-2
5.292159272E0,2.204728127E-2,2.785688639E-2,-3.326988220E-2,4.867210487E-2
5.297159272E0,-6.479024887E-4,3.842914104E-2,-5.070495605E-2,6.362555483E-2
5.302159272E0,1.072204113E-2,3.331977129E-2,-4.466438293E-2,5.674571726E-2
5.307159272E0,-2.721488476E-3,2.898830175E-2,-3.220939636E-2,4.341858303E-2
5.312159272E0,3.705263138E-3,1.771032810E-2,-1.941490173E-2,2.653908638E-2
5.317159272E0,2.414703369E-3,6.861329079E-3,-1.629257202E-2,1.784254837E-2
5.322159272E0,9.413599968E-3,-8.934736252E-3,6.278991699E-3,1.441773606E-2
5.327159272E0,-1.365244389E-3,-1.619327068E-2,9.481430054E-3,1.881444720E-2
5.332159272E0,-9.368002415E-3,-3.528207541E-2,1.220321655E-2,3.849029499E-2
5.337159272E0,-2.410942316E-2,-2.788966894E-2,7.661819458E-3,3.765370362E-2
5.342159272E0,-2.462691069E-2,-4.290652275E-2,7.658958435E-3,5.006110335E-2
5.347159272E0,-4.159754515E-2,-4.820191860E-2,-1.019477844E-3,6.367746897E-2
5.352159272E0,-4.742902517E-2,-3.763943911E-2,-1.601219177E-2,6.263090364E-2
5.357159272E0,-4.689693451E-2,-2.724349499E-2,-1.583862305E-2,5.650126074E-2
5.362159272E0,-3.785538673E-2,-3.658270836E-2,-2.678298950E-2,5.906482356E-2
5.367159272E0,-3.596186638E-2,-3.092896938E-2,-4.271125793E-2,6.382874380E-2
5.372159272E0,-2.183526754E-2,-2.456939220E-2,-4.262065887E-2,5.382336393E-2
5.377159272E0,-2.112704515E-2,-8.505463600E-3,-2.879619598E-2,3.671397351E-2
5.382159272E0,-1.266855001E-2,1.023471355E-3,-1.895332336E-2,2.282034442E-2
5.387159272E0,-1.011866331E-2,4.179716110E-3,4.687309265E-3,1.190916631E-2
5.392159272E0,-2.079957724E-2,2.571988106E-2,1.261520386E-2,3.540166752E-2
5.397159272E0,-1.913022995E-2,2.718538046E-2,1.083755493E-2,3.496374130E-2
5.402159272E0,-1.812720299E-2,2.421474457E-2,1.806449890E-2,3.523173943E-2
5.407159272E0,-1.354473829E-2,1.445025206E-2,1.875019073E-2,2.727341879E-2
5.412159272E0,-1.442396641E-2,2.080303431E-2,9.417533875E-3,2.700938703E-2
5.417159272E0,-1.845449209E-2,1.127898693E-2,3.596305847E-3,2.192526489E-2
5.422159272E0,-1.424270868E-2,9.017467499E-3,-3.269195557E-3,1.717140385E-2
5.427159272E0,-1.180297136E-2,-1.940369606E-3,7.485389709E-3,1.411050057E-2
5.432159272E0,-1.380717754E-2,-5.664765835E-3,1.628494263E-2,2.208907151E-2
5.437159272E0,6.344556808E-3,-3.122746944E-3,2.292537689E-2,2.399120371E-2
5.442159272E0,1.869392395E-2,-2.685844898E-3,2.345466614E-2,3.011308551E-2
5.447159272E0,1.473587751E-2,-7.629334927E-3,1.597023010E-2,2.303043827E-2
5.452159272E0,1.983153820E-2,-1.028674841E-2,-5.216598511E-4,2.234679461E-2
5.457159272E0,2.216017246E-2,-1.909065247E-2,-4.408836365E-3,2.957979197E-2
5.462159272E0,3.286683559E-2,-1.903051138E-2,-7.299423218E-3,3.867390366E-2
5.467159272E0,2.688378096E-2,-1.992481947E-2,-3.131389618E-2,4.582898868E-2
5.472159272E0,1.720923185E-2,-9.326994419E-3,-5.460834503E-2,5.801053209E-2
5.477159272E0,2.914530039E-2,2.444982529E-3,-4.740619659E-2,5.570254886E-2
5.482159272E0,3.115797043E-2,-1.083552837E-3,-2.916622162E-2,4.269264212E-2
5.487159272E0,4.084104300E-2,8.309125900E-3,4.125022888E-2,5.863969431E-2
5.492159272E0,3.025132418E-2,1.331073046E-2,1.352024078E-2,3.570875342E-2
5.497159272E0,3.960210085E-2,8.493185043E-3,-9.169197083E-2,1.002391046E-1
5.502159272E0,5.100923777E-2,-4.603266716E-3,-1.362943649E-1,1.455997470E-1
5.507159272E0,3.364515305E-2,-1.131373644E-2,-4.801750183E-2,5.971329364E-2
5.512159272E0,2.096742392E-2,-1.614707708E-2,1.076679230E-1,1.108726414E-1
5.517159272E0,4.552602768E-4,-9.754240513E-3,2.126035690E-1,2.128277003E-1
5.522159272E0,-2.882164717E-2,4.386663437E-3,2.298631668E-1,2.317045654E-1
5.527159272E0,-4.459816217E-2,1.909315586E-3,1.782751083E-1,1.837788231E-1
5.532159272E0,-5.423521996E-2,1.192688942E-3,1.010684967E-1,1.147071167E-1
5.537159272E0,-5.247819424E-2,6.645798683E-3,2.455234528E-2,5.831762314E-2
5.542159272E0,-4.721808434E-2,1.079171896E-2,-4.037475586E-2,6.305655872E-2
5.547159272E0,-3.438907862E-2,1.221859455E-2,-7.364940643E-2,8.219572890E-2
5.552159272E0,-1.887112856E-2,7.025003433E-3,-5.669403076E-2,6.016380382E-2
5.557159272E0,-1.733940840E-2,-7.254183292E-3,-6.352710724E-2,6.624931406E-2
5.562159272E0,-5.375325680E-3,-1.388943195E-2,-5.064582825E-2,5.279024877E-2
5.567159272E0,3.689348698E-3,-1.770079136E-2,-4.056930542E-2,4.441618906E-2
5.572159272E0,1.463520527E-2,-3.370285034E-3,-4.022598267E-2,4.293806861E-2
5.577159272E0,1.836347580E-2,-2.539992332E-3,-4.690361023E-2,5.043428851E-2
5.582159272E0,1.697653532E-2,-4.914522171E-3,-5.732727051E-2,5.998975932E-2
5.587159272E0,2.182871103E-2,9.682476521E-3,-5.326366425E-2,5.837174750E-2
5.592159272E0,3.816366196E-2,3.202188015E-2,-5.353355408E-2,7.312802004E-2
5.597159272E0,2.727180719E-2,2.874672413E-2,-5.290699005E-2,6.610049328E-2
5.602159272E0,3.045392036E-2,2.722162008E-2,-4.234790802E-2,5.883709017E-2
5.607159272E0,2.486431599E-2,2.634108067E-2,-4.193973541E-2,5.541685796E-2
5.612159272E0,2.059018612E-2,2.611720562E-2,-3.144168854E-2,4.576728058E-2
5.617159272E0,8.190810680E-3,7.769525051E-3,-1.489639282E-2,1.869110532E-2
5.622159272E0,1.513457298E-2,1.347088814E-2,-2.187061310E-2,2.981348426E-2
5.627159272E0,-3.597140312E-4,3.867745399E-3,-5.753517151E-3,6.942031998E-3
5.632159272E0,-1.396113634E-2,5.995631218E-3,6.858825684E-3,1.667046524E-2
5.637159272E0,-3.212577105E-2,-2.180218697E-3,5.005836487E-3,3.258645298E-2
5.642159272E0,-3.549563885E-2,1.545011997E-3,-1.568889618E-2,3.883901264E-2
5.647159272E0,-3.696602583E-2,-2.243518829E-4,-4.360103607E-2,5.716281786E-2
5.652159272E0,-3.125810623E-2,5.911290646E-3,-4.921150208E-2,5.859850253E-2
5.657159272E0,-2.994531393E-2,7.514119148E-3,-3.960227966E-2,5.021478236E-2
5.662159272E0,-1.171123981E-2,1.855844259E-2,-4.213809967E-2,4.750987659E-2
5.667159272E0,-1.302874088E-2,-4.011213779E-3,-2.105903625E-2,2.508626981E-2
5.672159272E0,-5.792081356E-3,-8.340001106E-3,1.879501343E-2,2.136249879E-2
5.677159272E0,-9.364604950E-3,-1.503604650E-2,4.502201080E-2,4.838140115E-2
5.682159272E0,5.301833153E-3,-1.565593481E-2,5.626869202E-2,5.864625675E-2
5.687159272E0,-1.778888702E-2,-1.258546114E-2,6.087779999E-2,6.466022630E-2
5.692159272E0,-2.137517929E-2,-2.525520325E-2,4.725933075E-2,5.769027582E-2
5.697159272E0,-1.617288589E-2,-1.754271984E-2,4.998111725E-2,5.538430589E-2
5.702159272E0,-1.852422953E-2,-2.054196596E-2,3.785324097E-2,4.688269720E-2
5.707159272E0,-1.403784752E-2,-1.177006960E-2,2.461433411E-2,3.068323883E-2
5.712159272E0,-2.233958244E-2,-9.103417397E-3,1.904964447E-2,3.073789366E-2
5.717159272E0,-2.161133289E-2,-9.585559368E-3,1.646327972E-2,2.880923875E-2
5.722159272E0,-1.601809263E-2,-1.364773512E-2,1.278591156E-2,2.462355579E-2
5.727159272E0,2.199590206E-3,-1.087939739E-2,1.156425476E-2,1.602908210E-2
5.732159272E0,-4.218816757E-4,-2.015626431E-2,1.167106628E-2,2.329520902E-2
5.737159272E0,7.751703262E-3,-2.034473419E-2,1.050090790E-2,2.417159861E-2
5.742159272E0,3.617465496E-3,-1.752138138E-2,-1.117420197E-2,2.109378230E-2
5.747159272E0,7.722139359E-3,-1.534867287E-2,-6.477355957E-3,1.836217131E-2
5.752159272E0,2.117079496E-2,-1.508843899E-2,-8.498191833E-3,2.735110263E-2
5.757159272E0,2.681964636E-2,-4.411518574E-3,7.809638977E-3,2.827976994E-2
5.762159272E0,1.822674274E-2,-6.135404110E-3,2.809143066E-2,3.404388068E-2
5.767159272E0,3.084629774E-2,-2.110898495E-2,3.042602539E-2,4.819570884E-2
5.772159272E0,4.809737206E-3,-8.474588394E-4,2.207756042E-2,2.261128994E-2
5.777159272E0,-7.532238960E-3,7.191300392E-3,2.606964111E-2,2.807268446E-2
5.782159272E0,4.299879074E-4,5.131006241E-3,1.163387299E-2,1.272238638E-2
5.787159272E0,6.081342697E-3,-2.968490124E-3,8.669853210E-3,1.099822792E-2
5.792159272E0,1.617312431E-3,-3.817737103E-3,-5.799293518E-3,7.128998625E-3
5.797159272E0,9.356081486E-3,-6.266474724E-3,-1.296138763E-2,1.716981467E-2
5.802159272E0,1.456022263E-3,-1.153677702E-2,5.618095398E-3,1.291434167E-2
5.807159272E0,4.792809486E-4,-2.470225096E-2,-2.340316772E-3,2.481749373E-2
5.812159272E0,-2.649784088E-3,-1.718389988E-2,2.554893494E-3,1.757370910E-2
5.817159272E0,1.043915749E-3,-1.872867346E-2,-6.312370300E-3,1.979138672E-2
5.822159272E0,3.634512424E-3,-1.064199209E-2,-8.640289307E-4,1.127866225E-2
5.827159272E0,8.934080601E-3,-9.242534637E-3,1.394271851E-3,1.293005169E-2
5.832159272E0,1.434028149E-2,-1.072740555E-2,-6.258010864E-3,1.897059838E-2
5.837159272E0,1.635432243E-3,2.923786640E-3,-2.149200439E-2,2.175153833E-2
5.842159272E0,1.553535461E-3,2.267956734E-4,-2.534198761E-2,2.539057393E-2
5.847159272E0,8.221030235E-3,1.342755556E-2,-8.745193481E-3,1.801008039E-2
5.852159272E0,4.262387753E-3,1.169884205E-2,-1.579093933E-2,2.010931674E-2
5.857159272E0,5.747616291E-3,8.637487888E-3,-1.705265045E-2,1.996081605E-2
5.862159272E0,4.132151604E-3,-3.986358643E-4,-9.139060974E-3,1.003772997E-2
5.867159272E0,-4.985511303E-3,9.185433388E-3,3.664016724E-3,1.107486018E-2
5.872159272E0,7.501244545E-4,1.343286037E-2,1.549434662E-2,2.052021446E-2
5.877159272E0,5.539894104E-3,1.719719172E-2,6.924629211E-3,1.934901339E-2
5.882159272E0,-1.327592134E-2,1.877427101E-3,1.224708557E-2,1.815945828E-2
5.887159272E0,-1.375269890E-2,1.192480326E-2,8.190155029E-3,1.996036821E-2
5.892159272E0,-4.980325699E-3,2.094507217E-3,-7.835388184E-3,9.517558118E-3
5.897159272E0,-1.095527411E-2,3.713369370E-4,3.699302673E-3,1.156895683E-2
5.902159272E0,-9.455025196E-3,7.312297821E-4,1.821231842E-2,2.053340548E-2
5.907159272E0,-6.803691387E-3,-4.589080811E-3,1.629066467E-2,1.824104259E-2
5.912159272E0,-1.139974594E-2,-4.165768623E-4,1.240730286E-3,1.147463095E-2
5.917159272E0,-9.113192558E-3,-9.562730789E-3,-4.936218262E-3,1.410185624E-2
5.922159272E0,-1.234114170E-3,-6.511211395E-3,-1.289272308E-2,1.449624848E-2
5.927159272E0,-9.095549583E-3,-1.755297184E-3,-1.072883606E-2,1.417455515E-2
5.932159272E0,-1.183980703E-2,-1.601278782E-3,-2.511978149E-3,1.220881479E-2
5.937159272E0,-5.496859550E-3,-1.641547680E-2,4.913330078E-3,1.799511478E-2
5.942159272E0,6.681144238E-3,-2.775669098E-3,2.182960510E-3,7.556940112E-3
5.947159272E0,-6.022512913E-3,1.017707586E-2,6.158828735E-3,1.333321815E-2
5.952159272E0,-1.033604145E-2,8.959591389E-3,-8.078575134E-3,1.588620178E-2
5.957159272E0,-4.917085171E-3,7.044672966E-4,-4.202842712E-3,6.506757073E-3
5.962159272E0,-3.331422806E-3,6.532788277E-3,-1.456260681E-3,7.476389219E-3
5.967159272E0,-8.907318115E-4,7.163226604E-3,-4.962921143E-3,8.759897534E-3
5.972159272E0,1.730322838E-4,-2.551138401E-3,-1.688957214E-3,3.064445102E-3
5.977159272E0,6.549715996E-3,1.165360212E-2,1.241016388E-2,1.824054247E-2
5.982159272E0,1.278185844E-2,1.283764839E-3,2.011299133E-3,1.300266441E-2
5.987159272E0,3.495395184E-3,7.383584976E-3,-1.915931702E-3,8.390822896E-3
5.992159272E0,1.268625259E-3,-1.489406824E-2,1.091957092E-2,1.851161009E-2
5.997159272E0,-7.674038410E-3,-3.204345703E-4,1.081943512E-2,1.326852366E-2
6.002159272E0,-3.141462803E-3,7.435679436E-4,5.835533142E-3,6.668967602E-3
6.007159272E0,-2.369999886E-3,8.552908897E-3,-5.023956299E-3,1.019849435E-2
6.012159272E0,-1.869678497E-3,7.583558559E-3,-8.278846741E-3,1.138179957E-2
6.017159272E0,-9.545683861E-4,5.513906479E-3,-2.144432068E-2,2.216242890E-2
6.022159272E0,3.193676472E-3,5.423665047E-3,-1.849079132E-2,1.953266688E-2
6.027159272E0,-6.392002106E-4,5.288064480E-3,-2.471065521E-2,2.527822549E-2
6.032159272E0,1.165699959E-2,8.438169956E-3,-9.652137756E-3,1.732778448E-2
6.037159272E0,6.092250347E-3,2.957224846E-3,-2.210235596E-2,2.311654888E-2
6.042159272E0,1.064437628E-2,-3.585517406E-3,-6.214141846E-3,1.283644189E-2
6.047159272E0,1.458525658E-3,1.432728767E-2,-9.791374207E-3,1.741463402E-2
6.052159272E0,-5.017995834E-3,9.984612465E-3,-1.196002960E-2,1.636811157E-2
6.057159272E0,-1.996159554E-4,8.758544922E-3,6.960868835E-3,1.118953308E-2
6.062159272E0,1.092720032E-2,4.379093647E-3,8.233070374E-3,1.436536166E-2
6.067159272E0,-8.332133293E-4,-1.521569490E-2,3.101062775E-2,3.455243333E-2
6.072159272E0,-9.385466576E-3,-1.080858707E-2,2.747154236E-2,3.097738170E-2
6.077159272E0,-8.356571198E-3,-1.677161455E-2,2.938365936E-2,3.484994655E-2
6.082159272E0,-4.101037979E-3,-1.393020153E-2,1.139450073E-2,1.845816010E-2
6.087159272E0,-5.386054516E-3,-1.002413034E-2,6.203651428E-3,1.296063515E-2
6.092159272E0,-5.552887917E-3,-1.946568489E-2,1.348495483E-3,2.028708684E-2
6.097159272E0,-1.590251923E-3,-1.864331961E-2,-8.066177368E-3,2.037561004E-2
6.102159272E0,-1.535654068E-3,-6.376743317E-3,-9.349822998E-3,1.142104544E-2
6.107159272E0,6.630659103E-3,5.880892277E-3,-8.628845215E-3,1.236962020E-2
6.112159272E0,-1.704573631E-3,2.808928490E-3,-1.908397675E-2,1.936475714E-2
6.117159272E0,3.920733929E-3,5.591809750E-3,-3.801250458E-2,3.862112110E-2
6.122159272E0,8.046925068E-3,7.958650589E-3,-3.254508972E-2,3.445687141E-2
6.127159272E0,1.711690426E-2,-5.473017693E-3,-1.679801941E-2,2.459910141E-2
6.132159272E0,1.658391953E-2,-8.940279484E-3,-7.710456848E-3,2.035696758E-2
6.137159272E0,1.233422756E-2,1.281201839E-3,2.411460876E-2,2.711621293E-2
6.142159272E0,4.671752453E-3,-9.478151798E-3,2.164077759E-2,2.408285463E-2
6.147159272E0,3.015279770E-3,-1.262688637E-2,4.563331604E-3,1.376060198E-2
6.152159272E0,1.902341843E-3,-3.967642784E-3,-2.631473541E-2,2.668007484E-2
6.157159272E0,1.235127449E-2,-4.863023758E-3,-5.932712555E-2,6.079400306E-2
6.162159272E0,2.242505550E-3,-1.048374176E-2,-5.882549286E-2,5.979445027E-2
6.167159272E0,2.013891935E-2,-3.339171410E-3,-2.983856201E-2,3.615336667E-2
6.172159272E0,1.698338985E-2,-1.966845989E-2,2.662563324E-2,3.720494847E-2
6.177159272E0,1.737844944E-2,-2.684414387E-3,7.131958008E-2,7.345542246E-2
6.182159272E0,8.996009827E-3,1.918852329E-3,1.121530533E-1,1.125296296E-1
6.187159272E0,6.731331348E-3,6.811797619E-3,1.587505341E-1,1.590391256E-1
6.192159272E0,3.849506378E-3,2.665638924E-3,2.684545517E-1,2.684953829E-1
6.197159272E0,-3.123080730E-2,1.633709669E-2,3.096303940E-1,3.116299808E-1
6.202159272E0,-8.194541931E-2,1.549625397E-2,1.485500336E-1,1.703593206E-1
6.207159272E0,-8.269995451E-2,3.972375393E-2,-1.027879715E-1,1.377774517E-1
6.212159272E0,-5.893868208E-2,4.041486979E-2,-2.928905487E-1,3.014830069E-1
6.217159272E0,-2.556622028E-2,3.568613529E-2,-3.820266724E-1,3.845406484E-1
6.222159272E0,1.584899426E-2,2.561438084E-2,-3.120679855E-1,3.135182845E-1
6.227159272E0,3.369271755E-2,1.349282265E-2,-1.353273392E-1,1.401097577E-1
6.232159272E0,3.184908628E-2,-9.846568108E-3,9.106159210E-2,9.697181424E-2
6.237159272E0,3.086817265E-2,-3.766888380E-2,1.965227127E-1,2.024671961E-1
6.242159272E0,1.996612549E-2,-6.355696917E-2,9.695911407E-2,1.176401475E-1
6.247159272E0,3.447800875E-2,-7.572847605E-2,1.375961304E-2,8.433778585E-2
6.252159272E0,1.764696836E-2,-6.552213430E-2,2.446365356E-2,7.213207277E-2
6.257159272E0,-1.647174358E-3,-4.434418678E-2,1.056089401E-1,1.145529062E-1
6.262159272E0,-3.369957209E-2,-4.691421986E-3,1.796159744E-1,1.828101990E-1
6.267159272E0,-5.969375372E-2,2.836585045E-2,1.861028671E-1,1.974898551E-1
6.272159272E0,-7.255023718E-2,5.459958315E-2,1.455183029E-1,1.715232575E-1
6.277159272E0,-8.158826828E-2,6.867957115E-2,8.633518219E-2,1.372125821E-1
6.282159272E0,-6.778222322E-2,7.071155310E-2,3.840351105E-2,1.052111362E-1
6.287159272E0,-4.954898357E-2,5.494868755E-2,-8.944511414E-3,7.452827867E-2
6.292159272E0,-2.695447206E-2,2.741974592E-2,-5.759429932E-2,6.924947180E-2
6.297159272E0,-1.311242580E-3,5.834162235E-3,-1.002655029E-1,1.004436553E-1
6.302159272E0,2.540123463E-2,-1.561987400E-2,-1.190385818E-1,1.227166947E-1
6.307159272E0,6.109046936E-2,-4.608172178E-2,-1.333789825E-1,1.537710100E-1
6.312159272E0,9.097051620E-2,-3.336143494E-2,-8.950996399E-2,1.319115378E-1
6.317159272E0,1.036112905E-1,-4.038119316E-2,-7.065963745E-2,1.317525128E-1
6.322159272E0,1.006766558E-1,-3.274470568E-2,-8.843421936E-3,1.062365798E-1
6.327159272E0,9.095168114E-2,-2.396148443E-2,2.305030823E-2,9.683841050E-2
6.332159272E0,7.765305042E-2,7.440447807E-4,1.125335693E-4,7.765669647E-2
6.337159272E0,4.766583443E-2,8.694171906E-3,6.025314331E-3,4.882545248E-2
6.342159272E0,3.685379028E-2,2.580446005E-2,-6.985664368E-3,4.552879883E-2
6.347159272E0,1.653712988E-2,1.768171787E-2,-2.452754974E-2,3.446332120E-2
6.352159272E0,5.359411240E-3,2.174365520E-2,-5.169963837E-2,5.634148061E-2
6.357159272E0,2.581119537E-3,3.648060560E-2,-4.832077026E-2,6.060027724E-2
6.362159272E0,9.051978588E-3,3.597402573E-2,-3.090667725E-2,4.828344998E-2
6.367159272E0,-1.311302185E-5,2.344053984E-2,-1.381397247E-2,2.720817736E-2
6.372159272E0,2.922534943E-3,8.536338806E-3,4.362106323E-3,1.002188916E-2
6.377159272E0,-8.598327637E-3,1.877760887E-2,7.733345032E-3,2.205299205E-2
6.382159272E0,-1.544523239E-2,-1.346123219E-2,3.580093384E-2,4.124884046E-2
6.387159272E0,-1.876157522E-2,-1.529115438E-2,2.390480042E-2,3.401845955E-2
6.392159272E0,-3.722470999E-2,-2.915155888E-2,7.565498352E-3,4.788245173E-2
6.397159272E0,-4.637056589E-2,-4.404139519E-2,-4.281997681E-3,6.409531477E-2
6.402159272E0,-4.161179066E-2,-4.909807444E-2,-3.922462463E-3,6.447904890E-2
6.407159272E0,-4.900902510E-2,-5.067580938E-2,-1.241207123E-2,7.158199292E-2
6.412159272E0,-4.367250204E-2,-4.197615385E-2,-3.261184692E-2,6.879547577E-2
6.417159272E0,-5.236750841E-2,-4.508972168E-2,-4.843616486E-2,8.438898627E-2
6.422159272E0,-4.417091608E-2,-2.939671278E-2,-1.882457733E-2,5.629921191E-2
6.427159272E0,-2.554279566E-2,-1.858317852E-2,-3.597545624E-2,4.787486173E-2
6.432159272E0,-2.306032181E-2,-9.963989258E-3,-2.073669434E-2,3.257406968E-2
6.437159272E0,-1.788401604E-2,5.356073380E-4,-1.236152649E-2,2.174700536E-2
6.442159272E0,-9.915471077E-3,1.634937525E-2,-7.558822632E-3,2.056099310E-2
6.447159272E0,6.168365479E-3,7.918238640E-3,-1.668071747E-2,1.946775722E-2
6.452159272E0,-1.515913010E-2,2.398800850E-2,-9.377479553E-3,2.988579763E-2
6.457159272E0,6.431281567E-3,2.798080444E-2,-3.108978271E-4,2.871207860E-2
6.462159272E0,-4.934787750E-3,1.712465286E-2,2.270889282E-2,2.886693054E-2
6.467159272E0,-3.295481205E-3,6.801903248E-3,1.067256927E-2,1.307783694E-2
6.472159272E0,-6.078481674E-3,1.025158167E-2,8.955955505E-3,1.490811877E-2
6.477159272E0,-2.844810486E-3,1.584887505E-4,1.295757294E-2,1.326713088E-2
6.482159272E0,-5.310356617E-3,-9.259939194E-3,1.902198792E-2,2.181243649E-2
6.487159272E0,-6.276309490E-3,-2.019196749E-2,1.888942719E-2,2.835344902E-2
6.492159272E0,-8.446574211E-4,-3.429055214E-3,1.014328003E-2,1.074048395E-2
6.497159272E0,7.625460625E-3,-1.860940456E-2,1.323986053E-2,2.407802930E-2
6.502159272E0,9.116470814E-3,-1.119869947E-2,-3.368377686E-3,1.482790876E-2
6.507159272E0,1.423680782E-2,-8.722722530E-3,-2.737045288E-3,1.691933811E-2
6.512159272E0,2.235227823E-2,-6.282269955E-3,-5.040168762E-3,2.375909424E-2
6.517159272E0,2.529573441E-2,-9.800910950E-3,-8.719444275E-3,2.849492486E-2
6.522159272E0,1.167237759E-2,-2.366805077E-2,3.470420837E-3,2.661700296E-2
6.527159272E0,2.789419889E-2,-1.210987568E-3,-1.388549805E-3,2.795497976E-2
6.532159272E0,1.098459959E-2,-1.087021828E-2,-2.205181122E-2,2.692778215E-2
6.537159272E0,3.366285563E-2,-1.127630472E-2,-2.522850037E-2,4.355249852E-2
6.542159272E0,3.362143040E-2,-4.958271980E-3,2.010345459E-2,3.948587000E-2
6.547159272E0,3.366816044E-2,1.534420252E-2,3.757858276E-2,5.273650975E-2
6.552159272E0,2.941960096E-2,1.355767250E-2,-5.056667328E-2,6.005257572E-2
6.557159272E0,2.729827166E-2,5.187392235E-4,-1.520433426E-1,1.544753791E-1
6.562159272E0,3.648030758E-2,-2.828276157E-2,-1.317758560E-1,1.396266582E-1
6.567159272E0,3.551900387E-2,-1.995909214E-2,2.970123291E-2,5.041952232E-2
6.572159272E0,1.971000433E-2,-2.544063330E-2,1.688947678E-1,1.719335705E-1
6.577159272E0,-7.773995399E-3,-1.254272461E-2,2.329921722E-1,2.334590055E-1
6.582159272E0,-4.262363911E-2,-3.848791122E-3,2.003698349E-1,2.048893812E-1
6.587159272E0,-4.276764393E-2,-5.042731762E-3,8.765506744E-2,9.766223098E-2
6.592159272E0,-5.250000954E-2,-3.669261932E-4,7.811546326E-3,5.307924163E-2
6.597159272E0,-3.606444597E-2,5.379080772E-3,-6.587982178E-2,7.529760747E-2
6.602159272E0,-2.806639671E-2,6.890237331E-3,-7.272052765E-2,7.825262383E-2
6.607159272E0,-1.031363010E-2,7.271051407E-3,-7.656478882E-2,7.759771930E-2
6.612159272E0,-9.425997734E-3,-7.243037224E-3,-3.322792053E-2,3.529030638E-2
6.617159272E0,4.140675068E-3,-1.186466217E-2,7.371902466E-3,1.456915730E-2
6.622159272E0,5.790054798E-3,-2.535152435E-2,1.972293854E-2,3.263769027E-2
6.627159272E0,9.171724319E-3,-2.620756626E-3,-3.090858459E-3,1.002707825E-2
6.632159272E0,9.513854980E-3,7.043540478E-3,-3.929615021E-2,4.104037427E-2
6.637159272E0,1.876980066E-2,5.185067654E-3,-4.202175140E-2,4.631433833E-2
6.642159272E0,2.103394270E-2,2.645552158E-2,-5.741977692E-2,6.662846350E-2
6.647159272E0,2.273017168E-2,2.261227369E-2,-5.155563354E-2,6.071209909E-2
6.652159272E0,1.416599751E-2,3.147912025E-2,-4.573917389E-2,5.730342508E-2
6.657159272E0,3.317213058E-2,3.509938717E-2,-3.995227814E-2,6.267808034E-2
6.662159272E0,3.113561869E-2,2.582699060E-2,-3.037929535E-2,5.059013521E-2
6.667159272E0,1.493263245E-2,2.416414022E-2,-5.054187775E-2,5.797732825E-2
6.672159272E0,9.085357189E-3,1.792317629E-2,-5.541801453E-3,2.084455629E-2
6.677159272E0,5.654513836E-3,1.164072752E-2,-1.569271088E-2,2.034063024E-2
6.682159272E0,4.401504993E-3,2.049404383E-2,1.045799255E-2,2.342538552E-2
6.687159272E0,-2.426207066E-3,1.203674078E-2,1.041698456E-2,1.610227241E-2
6.692159272E0,7.724761963E-5,3.537178040E-3,1.359939575E-3,3.790386699E-3
6.697159272E0,-3.631949425E-3,8.482456207E-3,-1.113986969E-2,1.446512415E-2
6.702159272E0,-4.909217358E-3,5.695343018E-3,-1.314640045E-2,1.514480743E-2
6.707159272E0,-5.514025688E-3,9.334087372E-5,-2.790546417E-2,2.844517749E-2
6.712159272E0,-1.382935047E-2,4.271268845E-4,-4.292106628E-2,4.509602314E-2
6.717159272E0,-8.563637733E-3,-9.455382824E-3,-4.710483551E-2,4.880169755E-2
6.722159272E0,-7.703304291E-3,-1.637518406E-3,-3.363037109E-2,3.454018274E-2
6.727159272E0,-1.297259331E-2,-1.014226675E-2,-8.503913879E-3,1.853295182E-2
6.732159272E0,-2.164858580E-2,-1.245146990E-2,2.402400970E-2,3.465333190E-2
6.737159272E0,-2.383649349E-2,-1.702129841E-2,3.539276123E-2,4.594072887E-2
6.742159272E0,-2.315843105E-2,-2.723729610E-2,2.628517151E-2,4.437446866E-2
6.747159272E0,-1.017123461E-2,-2.272343636E-2,3.148174286E-2,4.013612720E-2
6.752159272E0,-2.317684889E-2,-2.561950684E-2,3.942298889E-2,5.241848441E-2
6.757159272E0,-3.174757957E-2,-3.230488300E-2,5.116844177E-2,6.833537670E-2
6.762159272E0,-2.029335499E-2,-2.409213781E-2,4.526233673E-2,5.514463244E-2
6.767159272E0,-1.917666197E-2,-1.132190228E-2,4.218959808E-2,4.770631008E-2
6.772159272E0,-2.017968893E-2,-1.267778873E-2,5.127620697E-2,5.654374920E-2
6.777159272E0,-1.507639885E-2,5.379796028E-3,3.349685669E-2,3.712518573E-2
6.782159272E0,-1.774591208E-2,-7.009148598E-3,3.059482574E-2,3.605674586E-2
6.787159272E0,-1.452028751E-3,1.626133919E-3,1.630306244E-2,1.644817753E-2
6.792159272E0,3.126442432E-3,-6.886243820E-3,2.122402191E-2,2.253118067E-2
6.797159272E0,-3.882050514E-4,6.391227245E-3,7.917404175E-3,1.018252315E-2
6.802159272E0,1.026034355E-2,-1.062750816E-3,5.641937256E-3,1.175736132E-2
6.807159272E0,1.686996222E-2,-8.465886116E-3,-1.083564758E-2,2.176414739E-2
6.812159272E0,8.294939995E-3,-8.266150951E-3,-1.370429993E-3,1.179039268E-2
6.817159272E0,2.069360018E-2,-1.337319613E-2,7.799148560E-3,2.584364876E-2
6.822159272E0,1.001083851E-2,-1.642340422E-2,2.510070801E-3,1.939705001E-2
6.827159272E0,8.349239826E-3,-7.361531258E-3,2.402496338E-2,2.647830836E-2
6.832159272E0,7.833242416E-4,-8.099675179E-4,3.921031952E-2,3.922650636E-2
6.837159272E0,1.083230972E-2,-3.036916256E-3,3.965282440E-2,4.121781505E-2
6.842159272E0,4.803717136E-3,8.828043938E-4,4.097080231E-2,4.126089776E-2
6.847159272E0,-1.059687138E-2,-2.377152443E-3,9.787559509E-3,1.461987886E-2
6.852159272E0,-2.368211746E-3,-3.139615059E-3,1.609802246E-3,4.249361466E-3
6.857159272E0,-5.744457245E-3,-1.087421179E-2,-1.365184784E-2,1.837444477E-2
6.862159272E0,-3.026127815E-4,-5.263984203E-3,-1.945781708E-2,2.015955728E-2
6.867159272E0,2.893209457E-3,3.669261932E-4,-9.334564209E-3,9.779539088E-3
6.872159272E0,-7.551908493E-5,-5.867421627E-3,-4.849433899E-3,7.612446967E-3
6.877159272E0,-1.961350441E-3,-1.467823982E-2,-3.008842468E-3,1.511127899E-2
6.882159272E0,1.093596220E-2,-1.134896278E-2,-1.464271545E-2,2.151286456E-2
6.887159272E0,1.688599586E-2,3.433942795E-3,2.466201782E-3,1.740721031E-2
6.892159272E0,7.746398449E-3,-1.836121082E-3,-9.631156921E-3,1.249548771E-2
6.897159272E0,3.302752972E-3,-2.528786659E-3,-4.725456238E-3,6.295464702E-3
6.902159272E0,-4.322886467E-3,8.558154106E-3,-1.122474670E-2,1.476225889E-2
6.907159272E0,1.188635826E-3,8.292376995E-3,-8.351325989E-3,1.182882146E-2
6.912159272E0,1.018285751E-2,-2.383172512E-3,-2.021026611E-2,2.275576750E-2
6.917159272E0,5.152821541E-4,3.448605537E-3,-8.730888367E-3,9.401425824E-3
6.922159272E0,3.467023373E-3,2.695322037E-4,-1.089286804E-2,1.143448612E-2
6.927159272E0,-9.895920753E-3,2.190232277E-2,-6.793975830E-3,2.497597041E-2
6.932159272E0,-5.578458309E-3,6.964504719E-3,-4.088401794E-3,9.815220442E-3
6.937159272E0,-1.416444778E-3,6.255269051E-3,8.921623230E-3,1.098772350E-2
6.942159272E0,-6.430566311E-3,1.457285881E-2,-4.639625549E-3,1.659055521E-2
6.947159272E0,-4.624485970E-3,2.123141289E-2,5.710601807E-3,2.246708118E-2
6.952159272E0,-8.231282234E-3,2.008056641E-2,8.812904358E-3,2.342328836E-2
6.957159272E0,-4.070997238E-4,1.007187366E-2,-1.058197021E-2,1.461459760E-2
6.962159272E0,2.980291843E-3,4.326701164E-4,1.638412476E-3,3.428372550E-3
6.967159272E0,-7.256090641E-3,-5.945563316E-4,-4.982948303E-3,8.822364899E-3
6.972159272E0,3.632485867E-3,-2.129018307E-3,7.183074951E-3,8.326117839E-3
6.977159272E0,1.757621765E-3,-1.552760601E-3,-1.546859741E-3,2.809461659E-3
6.982159272E0,-1.816272736E-3,-4.395246506E-4,-1.543998718E-3,2.424038079E-3
6.987159272E0,-2.675056458E-4,5.112171173E-3,-1.541137695E-3,5.346116232E-3
6.992159272E0,4.408121109E-3,1.056617498E-2,-1.501750946E-2,1.888388667E-2
6.997159272E0,-1.214146614E-3,-1.204431057E-2,1.199054718E-2,1.703856774E-2
7.002159272E0,-1.413321495E-2,-6.286382675E-3,6.675720215E-6,1.546823896E-2
7.007159272E0,-8.840680122E-3,-1.200169325E-2,-9.354591370E-3,1.759848418E-2
7.012159272E0,-1.142257452E-2,2.076745033E-3,8.535385132E-4,1.164116002E-2
7.017159272E0,-1.394873857E-2,8.820891380E-4,7.941246033E-3,1.607509806E-2
7.022159272E0,-8.435666561E-3,-2.409815788E-3,1.153469086E-2,1.449195555E-2
7.027159272E0,-8.005380630E-3,1.073443890E-2,1.681137085E-2,2.149270777E-2
7.032159272E0,-8.241713047E-3,2.179861069E-3,1.704883575E-2,1.906149073E-2
7.037159272E0,-1.418626308E-2,-3.893375397E-4,1.596832275E-2,2.136326229E-2
7.042159272E0,-4.037439823E-3,8.990347385E-3,8.838653564E-3,1.323816691E-2
7.047159272E0,-4.862129688E-3,7.731556892E-3,4.633903503E-3,1.024159845E-2
7.052159272E0,7.565021515E-4,-2.133250237E-4,1.319885254E-3,1.536196652E-3
7.057159272E0,6.297886372E-3,-5.533754826E-3,1.121520996E-3,8.458346444E-3
7.062159272E0,-7.650256157E-4,-2.399265766E-3,-1.910209656E-3,3.160797579E-3
7.067159272E0,-6.351888180E-3,-1.874268055E-3,-7.083892822E-3,9.697468830E-3
7.072159272E0,-1.546859741E-3,-4.919230938E-3,-1.630783081E-3,5.408425051E-3
7.077159272E0,2.925455570E-3,3.095567226E-3,-5.149841309E-4,4.290225565E-3
7.082159272E0,1.302605867E-2,1.009106636E-3,-1.133251190E-2,1.729515327E-2
7.087159272E0,1.963436604E-3,-7.123529911E-3,-1.106929779E-2,1.330898626E-2
7.092159272E0,1.102137566E-2,2.620577812E-3,-6.985664368E-3,1.330930712E-2
7.097159272E0,1.494526863E-3,-4.064202309E-3,1.174926758E-3,4.486847873E-3
7.102159272E0,8.350968361E-3,-6.053149700E-3,-6.912231445E-3,1.241604758E-2
7.107159272E0,3.732442856E-3,2.314269543E-3,6.790161133E-4,4.443876244E-3
7.112159272E0,5.298852921E-3,-7.084608078E-4,-1.170539856E-2,1.286841538E-2
7.117159272E0,8.951902390E-3,5.480885506E-3,-1.163482666E-2,1.566990280E-2
7.122159272E0,6.462693214E-3,2.172768116E-3,-3.758430481E-3,7.785443118E-3
7.127159272E0,1.424485445E-2,-1.082324982E-2,-2.012920380E-2,2.693034460E-2
7.132159272E0,7.096827030E-3,-3.845870495E-3,-1.473522186E-2,1.680126296E-2
7.137159272E0,-4.326462746E-3,4.159867764E-3,-1.589298248E-2,1.698851588E-2
7.142159272E0,-9.074151516E-3,-3.667473793E-4,-2.399444580E-2,2.565556779E-2
7.147159272E0,-6.424427032E-3,-2.567768097E-3,-1.103973389E-2,1.302852332E-2
7.152159272E0,-5.741119385E-4,-6.071567535E-3,-1.458168030E-2,1.580566155E-2
7.157159272E0,4.342854023E-3,7.282793522E-3,-1.301193237E-2,1.553093193E-2
7.162159272E0,2.274990082E-3,7.877528667E-3,-9.185791016E-3,1.231299291E-2
7.167159272E0,1.756548882E-3,8.285403252E-3,-7.003784180E-3,1.099028498E-2
7.172159272E0,-1.201808453E-3,4.780948162E-3,-1.577377319E-3,5.175898771E-3
7.177159272E0,-1.540720463E-3,7.823586464E-3,1.734828949E-2,1.909307395E-2
7.182159272E0,-7.604420185E-3,-5.831241608E-3,1.274871826E-2,1.594868027E-2
7.187159272E0,-2.662599087E-3,2.631187439E-3,1.259136200E-2,1.313601836E-2
7.192159272E0,-3.434062004E-3,-4.993975163E-3,3.167152405E-3,6.838378765E-3
7.197159272E0,8.058726788E-3,-5.896329880E-3,-3.667831421E-3,1.063779915E-2
7.202159272E0,-2.355635166E-3,-1.998364925E-3,5.343437195E-3,6.172098546E-3
7.207159272E0,-1.066291332E-2,-3.905177116E-3,-1.394462585E-2,1.798334560E-2
7.212159272E0,-1.037478447E-3,-1.280647516E-2,-1.243114471E-2,1.787779423E-2
7.217159272E0,-7.532119751E-3,1.005631685E-2,-3.169822693E-2,3.409750617E-2
7.222159272E0,-6.430208683E-3,6.936252117E-3,-1.441574097E-2,1.724159983E-2
7.227159272E0,-2.195012569E-2,-1.793503761E-3,-8.927345276E-3,2.376388368E-2
7.232159272E0,-4.252970219E-3,9.757041931E-3,-1.196956635E-2,1.601743242E-2
7.237159272E0,-2.615272999E-3,8.711874485E-3,-2.270317078E-2,2.445752181E-2
7.242159272E0,1.087754965E-2,4.824042320E-3,-2.117156982E-4,1.190114676E-2
7.247159272E0,8.912086487E-3,9.293615818E-3,2.245903015E-2,2.588831041E-2
7.252159272E0,-8.351802826E-4,-1.085054874E-2,3.232765198E-2,3.411024797E-2
7.257159272E0,-3.100633621E-3,-1.999628544E-2,3.330612183E-2,3.897131139E-2
7.262159272E0,-5.552411079E-3,-2.097946405E-2,-1.182556152E-4,2.170210048E-2
7.267159272E0,-1.076436043E-2,-1.265180111E-2,-5.158233643E-2,5.419111512E-2
7.272159272E0,1.989364624E-3,-1.180219650E-2,-6.689167023E-2,6.795399149E-2
7.277159272E0,1.092076302E-2,-1.308298111E-2,-5.178737640E-2,5.451935266E-2
7.282159272E0,3.128767014E-3,-1.286083460E-2,-1.117801666E-2,1.732450017E-2
7.287159272E0,1.175189018E-2,-4.817843437E-4,3.318309784E-2,3.520592310E-2
7.292159272E0,-3.559589386E-3,-1.906526089E-2,7.823085785E-2,8.059914372E-2
7.297159272E0,2.384185791E-6,-1.937973499E-2,1.143789291E-1,1.160091098E-1
7.302159272E0,1.638972759E-2,9.068846703E-4,2.041034698E-1,2.047624771E-1
7.307159272E0,7.416605949E-3,5.172789097E-3,2.781705856E-1,2.783175138E-1
7.312159272E0,-2.502560616E-2,7.984340191E-3,2.524480820E-1,2.538110808E-1
7.317159272E0,-6.317555904E-2,2.858817577E-2,6.972217560E-2,9.833420984E-2
7.322159272E0,-5.920237303E-2,3.508931398E-2,-1.759433746E-1,1.889239318E-1
7.327159272E0,-3.874385357E-2,3.618729115E-2,-3.256378174E-1,3.299251344E-1
7.332159272E0,2.112984657E-4,3.231489658E-2,-3.657436371E-1,3.671684971E-1
7.337159272E0,2.749162912E-2,1.226079464E-2,-2.708139420E-1,2.724817570E-1
7.342159272E0,4.061996937E-2,-4.675507545E-3,-9.211063385E-2,1.007780291E-1
7.347159272E0,3.957855701E-2,-2.884525061E-2,1.196813583E-1,1.293141067E-1
7.352159272E0,3.024888039E-2,-5.169576406E-2,1.861820221E-1,1.955791199E-1
7.357159272E0,2.591270208E-2,-6.268221140E-2,8.018112183E-2,1.050216171E-1
7.362159272E0,4.238569736E-2,-6.458234787E-2,-2.824687958E-2,8.225152402E-2
7.367159272E0,1.492697001E-2,-6.909859180E-2,1.919269562E-2,7.325154871E-2
7.372159272E0,-5.088448524E-4,-4.487609863E-2,1.225900650E-1,1.305467242E-1
7.377159272E0,-4.223728180E-2,-4.736900330E-3,2.013521194E-1,2.057889749E-1
7.382159272E0,-6.732606888E-2,2.910017967E-2,1.967077255E-1,2.099370127E-1
7.387159272E0,-5.960166454E-2,5.673742294E-2,1.530532837E-1,1.737722683E-1
7.392159272E0,-7.275420427E-2,7.304060459E-2,7.983398438E-2,1.303900656E-1
7.397159272E0,-6.959873438E-2,6.939810514E-2,2.197742462E-2,1.007128990E-1
7.402159272E0,-4.789948463E-2,4.753279686E-2,-4.221057892E-2,7.959560527E-2
7.407159272E0,-3.056049347E-2,3.231871128E-2,-8.696174622E-2,9.767695821E-2
7.412159272E0,-8.883416653E-3,1.334011555E-2,-1.344776154E-1,1.354293277E-1
7.417159272E0,3.023576736E-2,-1.178532839E-2,-1.418218613E-1,1.454872363E-1
7.422159272E0,7.337713242E-2,-3.695869446E-2,-1.597929001E-1,1.796772650E-1
7.427159272E0,9.276431799E-2,-3.958731890E-2,-9.070301056E-2,1.356444272E-1
7.432159272E0,1.103796959E-1,-4.507195950E-2,-4.808712006E-2,1.285594412E-1
7.437159272E0,9.568697214E-2,-2.106881142E-2,-1.275825500E-2,9.880619678E-2
7.442159272E0,7.483536005E-2,-9.402215481E-3,1.862907410E-2,7.769025146E-2
7.447159272E0,6.443226337E-2,4.931390285E-3,1.337718964E-2,6.599079009E-2
7.452159272E0,4.441404343E-2,2.852547169E-2,7.912635803E-3,5.337527137E-2
7.457159272E0,1.805299520E-2,4.045200348E-2,-1.843357086E-2,4.797990992E-2
7.462159272E0,1.014292240E-2,3.713566065E-2,-2.864170074E-2,4.798211321E-2
7.467159272E0,-8.124589920E-3,3.348225355E-2,-4.238796234E-2,5.462425849E-2
7.472159272E0,-3.744363785E-3,4.323202372E-2,-3.789138794E-2,5.760890048E-2
7.477159272E0,2.215683460E-3,4.302090406E-2,-3.399181366E-2,5.487395407E-2
7.482159272E0,3.995299339E-3,2.451300621E-2,-1.053905487E-2,2.698002164E-2
7.487159272E0,-8.362650871E-3,1.936531067E-2,1.162147522E-2,2.408335262E-2
7.492159272E0,-1.903796196E-2,3.572046757E-3,2.987957001E-2,3.560887835E-2
7.497159272E0,-1.857215166E-2,-9.889364243E-3,3.338146210E-2,3.945942668E-2
7.502159272E0,-4.546344280E-2,-1.705455780E-2,2.757453918E-2,5.584028818E-2
7.507159272E0,-3.469842672E-2,-4.488384724E-2,1.238536835E-2,5.806838993E-2
7.512159272E0,-4.865270853E-2,-4.985302687E-2,-6.736755371E-3,6.998424257E-2
7.517159272E0,-5.184191465E-2,-4.362958670E-2,-6.036758423E-4,6.776052962E-2
7.522159272E0,-4.248368740E-2,-4.048120975E-2,-9.660720825E-3,5.947202338E-2
7.527159272E0,-4.909002781E-2,-4.353344440E-2,-2.219390869E-2,6.926442951E-2
7.532159272E0,-4.712635279E-2,-4.400831461E-2,-2.425003052E-2,6.888896038E-2
7.537159272E0,-2.642458677E-2,-3.330850601E-2,-1.913928986E-2,4.662647075E-2
7.542159272E0,-2.366518974E-2,-1.762104034E-2,-1.539134979E-2,3.327815976E-2
7.547159272E0,-3.742915392E-2,-3.540217876E-3,-8.409500122E-3,3.852524365E-2
7.552159272E0,-2.962857485E-2,1.149100065E-2,1.406097412E-2,3.475063362E-2
7.557159272E0,-1.614540815E-2,8.191883564E-3,8.184432983E-3,1.986872175E-2
7.562159272E0,-2.050381899E-2,1.834368706E-2,7.783889771E-3,2.859171887E-2
7.567159272E0,-2.493721247E-2,2.309185266E-2,1.307106018E-2,3.641360789E-2
7.572159272E0,-1.030617952E-2,8.797764778E-3,8.817672729E-3,1.616692159E-2
7.577159272E0,-1.337313652E-2,2.029252052E-2,1.114082336E-2,2.673471741E-2
7.582159272E0,-5.759596825E-3,2.659100294E-2,-2.423286438E-3,2.731532006E-2
7.587159272E0,-2.412319183E-3,1.710331440E-2,-5.805015564E-3,1.822198817E-2
7.592159272E0,-1.675248146E-3,2.233254910E-2,-1.935577393E-2,2.960059441E-2
7.597159272E0,-2.921223640E-4,8.593320847E-3,-1.257038116E-2,1.522974003E-2
7.602159272E0,6.926417351E-3,2.929985523E-3,-9.633064270E-3,1.222112923E-2
7.607159272E0,1.817935705E-2,-1.742720604E-3,1.778602600E-2,2.549252476E-2
7.612159272E0,2.026176453E-2,-1.966953278E-6,1.850128174E-4,2.026260929E-2
7.617159272E0,2.795505524E-2,-1.572078466E-2,-2.225112915E-2,3.903512434E-2
7.622159272E0,1.631265879E-2,-3.431379795E-3,-1.322269440E-2,2.127714387E-2
7.627159272E0,3.006094694E-2,-1.127952337E-2,-1.033973694E-2,3.373126648E-2
7.632159272E0,2.630895376E-2,-1.862645149E-2,-3.864288330E-3,3.246595860E-2
7.637159272E0,2.867174149E-2,-1.590251923E-2,-4.754066467E-3,3.312944348E-2
7.642159272E0,2.191740274E-2,-2.372711897E-2,-5.660057068E-3,3.279306274E-2
7.647159272E0,2.781128883E-2,-1.809042692E-2,-1.427936554E-2,3.611968456E-2
7.652159272E0,3.401380777E-2,-4.816651344E-3,-1.228332520E-3,3.437510800E-2
7.657159272E0,2.614063025E-2,4.394233227E-3,2.912425995E-2,3.938101513E-2
7.662159272E0,2.293956280E-2,-4.522383213E-3,3.136062622E-2,3.911731545E-2
7.667159272E0,2.560144663E-2,1.120060682E-2,-7.230091095E-2,7.751328523E-2
7.672159272E0,3.439038992E-2,-2.514839172E-3,-1.150379181E-1,1.200947373E-1
7.677159272E0,3.610527515E-2,-2.108228207E-2,-6.584930420E-2,7.800118188E-2
7.682159272E0,3.580749035E-2,-1.094985008E-2,8.624744415E-2,9.402498181E-2
7.687159272E0,2.312242985E-3,-2.815067768E-3,1.796398163E-1,1.796767505E-1
7.692159272E0,-2.999907732E-2,-4.337728024E-3,2.200098038E-1,2.220879877E-1
7.697159272E0,-3.543215990E-2,1.059430838E-2,1.670942307E-1,1.711378370E-1
7.702159272E0,-4.491168261E-2,1.325821877E-2,8.805561066E-2,9.973279384E-2
7.707159272E0,-4.959946871E-2,1.897734404E-2,-6.407737732E-3,5.349117671E-2
7.712159272E0,-2.914208174E-2,1.291018724E-2,-6.420993805E-2,7.168577270E-2
7.717159272E0,-1.734560728E-2,1.183158159E-2,-1.059217453E-1,1.079827419E-1
7.722159272E0,-2.154970169E-2,5.603671074E-3,-9.881210327E-2,1.012897948E-1
7.727159272E0,5.328416824E-3,-8.131861687E-4,-7.387924194E-2,7.407560791E-2
7.732159272E0,1.637667418E-2,-3.940761089E-3,-2.453517914E-2,2.976071354E-2
7.737159272E0,2.460354567E-2,-1.165354252E-2,-3.123283386E-3,2.740245266E-2
7.742159272E0,2.677345276E-2,-4.508614540E-3,-1.304721832E-2,3.012267059E-2
7.747159272E0,2.722734213E-2,2.370417118E-3,-5.846023560E-3,2.794857829E-2
7.752159272E0,8.851349354E-3,7.886886597E-3,-3.895759583E-3,1.247903475E-2
7.757159272E0,1.098167896E-2,1.398581266E-2,6.843566895E-3,1.905346784E-2
7.762159272E0,-3.360271454E-3,2.604138851E-2,-2.295875549E-2,3.487907386E-2
7.767159272E0,1.073533297E-2,3.793865442E-2,-4.665374756E-2,6.108323039E-2
7.772159272E0,1.346975565E-2,3.222459555E-2,-6.216812134E-2,7.130732211E-2
7.777159272E0,1.253652573E-2,2.862018347E-2,-6.759452820E-2,7.446676857E-2
7.782159272E0,1.935768127E-2,2.534997463E-2,-6.017398834E-2,6.810469816E-2
7.787159272E0,7.290303707E-3,1.454627514E-2,-2.188014984E-2,2.726689578E-2
7.792159272E0,-6.498992443E-3,5.129277706E-3,5.182266235E-3,9.767408863E-3
7.797159272E0,-4.275321960E-3,9.280920029E-3,2.559375763E-2,2.755819813E-2
7.802159272E0,-1.110106707E-2,-3.918290138E-3,3.052616119E-2,3.271747553E-2
7.807159272E0,-1.076304913E-2,-2.420842648E-3,1.912117004E-2,2.207539013E-2
7.812159272E0,-1.394116879E-2,-1.665532589E-3,2.311611176E-2,2.704597583E-2
7.817159272E0,-1.551377773E-2,-2.342462540E-5,-4.435539246E-3,1.613542242E-2
7.822159272E0,-2.438843250E-2,-8.681237698E-3,-2.068042755E-2,3.313366282E-2
7.827159272E0,-2.595090866E-2,1.398921013E-4,-2.137088776E-2,3.361821045E-2
7.832159272E0,-3.570109606E-2,7.588267326E-4,-2.548789978E-2,4.387228183E-2
7.837159272E0,-1.930463314E-2,-9.216487408E-3,-3.033447266E-2,3.711863053E-2
7.842159272E0,-1.221364737E-2,-6.741762161E-3,-2.023315430E-2,2.457651464E-2
7.847159272E0,-1.402568817E-2,-1.340895891E-2,2.035140991E-3,1.951055885E-2
7.852159272E0,-1.347076893E-2,-2.467411757E-2,3.319931030E-2,4.350250450E-2
7.857159272E0,-2.563357353E-2,-3.589916229E-2,4.145526886E-2,6.053403391E-2
7.862159272E0,-2.059817314E-2,-1.827996969E-2,5.609130859E-2,6.248741416E-2
7.867159272E0,-1.418530941E-2,-2.041262388E-2,7.272338867E-2,7.685433935E-2
7.872159272E0,-3.016448021E-2,-1.230251789E-2,7.494544983E-2,8.171944850E-2
7.877159272E0,-2.573257685E-2,-1.899373531E-2,4.441165924E-2,5.472954384E-2
7.882159272E0,-1.750361919E-2,-1.631140709E-2,4.187202454E-2,4.822556506E-2
7.887159272E0,-6.421804428E-3,-1.105004549E-2,3.985500336E-2,4.185408427E-2
7.892159272E0,-1.081818342E-2,-9.954869747E-3,2.153491974E-2,2.607461011E-2
7.897159272E0,-6.563961506E-3,3.808081150E-3,5.013465881E-3,9.095158758E-3
7.902159272E0,7.605731487E-3,-1.485335827E-2,8.078575134E-3,1.854003181E-2
7.907159272E0,9.041011333E-3,-1.186281443E-2,1.458168030E-3,1.498641071E-2
7.912159272E0,1.452022791E-2,-9.182631969E-3,5.970001221E-4,1.719052523E-2
7.917159272E0,1.739954948E-2,-1.704710722E-2,3.427505493E-3,2.459869876E-2
